ItemOID,ODM_Variable,ODM_Domain,Alias_Context,Alias_Name,Alias_Label,Mapping_Type,Match_Type,Derived_Target,SDTM_Domain,SDTM_Variable,SDTM_Label,Ordinal,Core,Role,Datatype,Description,CodeList,SDTM_Path,QNAM,QLABEL,IDVAR,IDVARVAL
IT.DM.ACTARM,ACTARM,DM,DERIVATION_RULE,ACTARM,,Derived,Alias.Derivation,,DM,ACTARM,Description of Actual Arm,27,Exp,Synonym Qualifier,Char,"Description of actual arm. \n With the exception of studies which use multistage arm assignments, must be a value of ARM in the Trial Arms dataset. \n If the subject was not assigned to an arm or followed a course not described by any planned arm, ACTARM is null and ARMNRS is populated.",,/mdr/sdtmig/3-4/datasets/DM/variables/ACTARM,,,,
IT.DM.ACTARMCD,ACTARMCD,DM,DERIVATION_RULE,ACTARMCD,,Derived,Alias.Derivation,,DM,ACTARMCD,Actual Arm Code,26,Exp,Record Qualifier,Char,"Code of actual arm. ACTARMCD is limited to 20 characters. It is not subject to the character restrictions that apply to TESTCD. The maximum length of ACTARMCD is longer than for other short variables to accommodate the kind of values that are likely to be needed for crossover trials. \n With the exception of studies which use multistage arm assignments, must be a value of ARMCD in the Trial Arms dataset. \n If the subject was not assigned to an arm or followed a course not described by any planned arm, ACTARMCD is null and ARMNRS is populated.",,/mdr/sdtmig/3-4/datasets/DM/variables/ACTARMCD,,,,
IT.DM.ARM,ARM,DM,DERIVATION_RULE,ARM,,Derived,Alias.Derivation,,DM,ARM,Description of Planned Arm,25,Exp,Synonym Qualifier,Char,"Name of the arm to which the subject was assigned. If the subject was not assigned to an arm, ARM is null and ARMNRS is populated. \n With the exception of studies which use multistage arm assignments, must be a value of ARM in the Trial Arms dataset.",,/mdr/sdtmig/3-4/datasets/DM/variables/ARM,,,,
IT.DM.ARMCD,ARMCD,DM,DERIVATION_RULE,ARMCD,,Derived,Alias.Derivation,,DM,ARMCD,Planned Arm Code,24,Exp,Record Qualifier,Char,"ARMCD is limited to 20 characters. It is not subject to the character restrictions that apply to TESTCD. The maximum length of ARMCD is longer than for other ""short"" variables to accommodate the kind of values that are likely to be needed for crossover trials. For example, if ARMCD values for a 7-period crossover were constructed using 2-character abbreviations for each treatment and separating hyphens, the length of ARMCD values would be 20. If the subject was not assigned to a trial arm, ARMCD is null and ARMNRS is populated. \n With the exception of studies which use multistage arm assignments, must be a value of ARMCD in the Trial Arms dataset.",,/mdr/sdtmig/3-4/datasets/DM/variables/ARMCD,,,,
IT.DM.ARMNRS,ARMNRS,DM,DERIVATION_RULE,ARMNRS,,Derived,Alias.Derivation,,DM,ARMNRS,Reason Arm and/or Actual Arm is Null,28,Exp,Record Qualifier,Char,"A coded reason that arm variables (ARM and ARMCD) and/or actual arm variables (ACTARM and ACTARMCD) are null. Examples: ""SCREEN FAILURE"", ""NOT ASSIGNED"", ""ASSIGNED, NOT TREATED"", ""UNPLANNED TREATMENT"". It is assumed that if the arm and actual arm variables are null, the same reason applies to both arm and actual arm.",/mdr/root/ct/sdtmct/codelists/C142179,/mdr/sdtmig/3-4/datasets/DM/variables/ARMNRS,,,,
IT.DM.ACTARMUD,ACTARMUD,DM,DERIVATION_RULE,ACTARMUD,,Derived,Alias.Derivation,,DM,ACTARMUD,Description of Unplanned Actual Arm,29,Exp,Record Qualifier,Char,A description of actual treatment for a subject who did not receive treatment described in a planned trial arm.,,/mdr/sdtmig/3-4/datasets/DM/variables/ACTARMUD,,,,
IT.DM.BRTHDTC,BRTHDTC,DM,,,,Direct,OID,,DM,BRTHDTC,Date/Time of Birth,18,Perm,Record Qualifier,Char,Date/time of birth of the subject.,,/mdr/sdtmig/3-4/datasets/DM/variables/BRTHDTC,,,,
IT.DM.COUNTRY,COUNTRY,DM,,,,Direct,OID,,DM,COUNTRY,Country,30,Req,Record Qualifier,Char,"Country of the investigational site in which the subject participated in the trial. \n \n Generally represented using ISO 3166-1 Alpha-3. Note that regulatory agency specific requirements (e.g., US FDA) may require other terminologies; in such cases, follow regulatory requirements.",,/mdr/sdtmig/3-4/datasets/DM/variables/COUNTRY,,,,
IT.DM.DMDTC,DMDTC,DM,,,,Direct,OID,,DM,DMDTC,Date/Time of Collection,31,Perm,Timing,Char,Date/time of demographic data collection.,,/mdr/sdtmig/3-4/datasets/DM/variables/DMDTC,,,,
IT.DM.DOMAIN,DOMAIN,DM,,,,Direct,OID,,DM,DOMAIN,Domain Abbreviation,2,Req,Identifier,Char,Two-character abbreviation for the domain.,,/mdr/sdtmig/3-4/datasets/DM/variables/DOMAIN,,,,
IT.DM.ETHNIC,ETHNIC,DM,,,,Direct,OID,,DM,ETHNIC,Ethnicity,23,Perm,Record Qualifier,Char,The ethnicity of the subject. Sponsors should refer to the FDA guidance1 regarding the collection of ethnicity.,/mdr/root/ct/sdtmct/codelists/C66790,/mdr/sdtmig/3-4/datasets/DM/variables/ETHNIC,,,,
IT.DM.RACE,RACE,DM,DERIVATION_RULE,RACE,,Derived,Alias.Derivation,,DM,RACE,Race,22,Exp,Record Qualifier,Char,Race of the subject. Sponsors should refer to the FDA guidance2 regarding the collection of race. See assumption below regarding RACE.,/mdr/root/ct/sdtmct/codelists/C74457,/mdr/sdtmig/3-4/datasets/DM/variables/RACE,,,,
IT.DM.RACEOTH,RACEOTH,DM,SUPPQUAL.SUPPDM.QNAM,RACEOTH,"Race, Other Specify",SUPPQUAL,Alias.SUPP,,SUPPDM,QVAL,Qualifier Value,,,,,,,,RACEOTH,"Race, Other Specify",DM,RACEOTH
IT.DM.RACE_AIAN,RACE_AIAN,DM,DERIVATION_RULE,RACE,,Unmatched,Unmatched,RACE,,,,,,,,,,,,,,
IT.DM.RACE_ASIAN,RACE_ASIAN,DM,DERIVATION_RULE,RACE,,Unmatched,Unmatched,RACE,,,,,,,,,,,,,,
IT.DM.RACE_BLACK,RACE_BLACK,DM,DERIVATION_RULE,RACE,,Unmatched,Unmatched,RACE,,,,,,,,,,,,,,
IT.DM.RACE_NHPI,RACE_NHPI,DM,DERIVATION_RULE,RACE,,Unmatched,Unmatched,RACE,,,,,,,,,,,,,,
IT.DM.RACE_OTHER,RACE_OTHER,DM,DERIVATION_RULE,RACE,,Unmatched,Unmatched,RACE,,,,,,,,,,,,,,
IT.DM.RACE_WHITE,RACE_WHITE,DM,DERIVATION_RULE,RACE,,Unmatched,Unmatched,RACE,,,,,,,,,,,,,,
IT.DM.RFENDTC,RFENDTC,DM,DERIVATION_RULE,RFENDTC,,Derived,Alias.Derivation,,DM,RFENDTC,Subject Reference End Date/Time,6,Exp,Record Qualifier,Char,"Reference end date/time for the subject in ISO 8601 character format. Usually equivalent to the date/time when subject was determined to have ended the trial, and often equivalent to date/time of last exposure to study treatment. Required for all randomized subjects; null for screen failures or unassigned subjects.",,/mdr/sdtmig/3-4/datasets/DM/variables/RFENDTC,,,,
IT.DM.RFICDTC,RFICDTC,DM,,,,Direct,OID,,DM,RFICDTC,Date/Time of Informed Consent,11,Exp,Record Qualifier,Char,"Date/time of informed consent in ISO 8601 character format. This will be the same as the date of informed consent in the Disposition domain, if that protocol milestone is documented. Would be null only in studies not collecting the date of informed consent.",,/mdr/sdtmig/3-4/datasets/DM/variables/RFICDTC,,,,
IT.DM.RFPENDTC,RFPENDTC,DM,DERIVATION_RULE,RFPENDTC,,Derived,Alias.Derivation,,DM,RFPENDTC,Date/Time of End of Participation,12,Exp,Record Qualifier,Char,"Date/time when subject ended participation or follow-up in a trial, as defined in the protocol, in ISO 8601 character format. Should correspond to the last known date of contact. Examples include completion date, withdrawal date, last follow-up, date recorded for lost to follow up, and death date.",,/mdr/sdtmig/3-4/datasets/DM/variables/RFPENDTC,,,,
IT.DM.RFSTDTC,RFSTDTC,DM,DERIVATION_RULE,RFSTDTC,,Derived,Alias.Derivation,,DM,RFSTDTC,Subject Reference Start Date/Time,5,Exp,Record Qualifier,Char,Reference start date/time for the subject in ISO 8601 character format. Usually equivalent to date/time when subject was first exposed to study treatment. See assumption 9 for additional detail on when RFSTDTC may be null.,,/mdr/sdtmig/3-4/datasets/DM/variables/RFSTDTC,,,,
IT.DM.SEX,SEX,DM,,,,Direct,OID,,DM,SEX,Sex,21,Req,Record Qualifier,Char,Sex of the subject.,/mdr/root/ct/sdtmct/codelists/C66731,/mdr/sdtmig/3-4/datasets/DM/variables/SEX,,,,
IT.DM.SITEID,SITEID,DM,,,,Direct,OID,,DM,SITEID,Study Site Identifier,15,Req,Record Qualifier,Char,Unique identifier for a site within a study.,,/mdr/sdtmig/3-4/datasets/DM/variables/SITEID,,,,
IT.DM.STUDYID,STUDYID,DM,,,,Direct,OID,,DM,STUDYID,Study Identifier,1,Req,Identifier,Char,Unique identifier for a study.,,/mdr/sdtmig/3-4/datasets/DM/variables/STUDYID,,,,
IT.DM.SUBJID,SUBJID,DM,,,,Direct,OID,,DM,SUBJID,Subject Identifier for the Study,4,Req,Topic,Char,"Subject identifier, which must be unique within the study. Often the ID of the subject as recorded on a CRF.",,/mdr/sdtmig/3-4/datasets/DM/variables/SUBJID,,,,
IT.DM.AGE,AGE,DM,DERIVATION_RULE,AGE,,Derived,Alias.Derivation,,DM,AGE,Age,19,Exp,Record Qualifier,Num,"Age expressed in AGEU. May be derived from RFSTDTC and BRTHDTC, but BRTHDTC may not be available in all cases (due to subject privacy concerns).",,/mdr/sdtmig/3-4/datasets/DM/variables/AGE,,,,
