{
  "_links": {
    "model": {
      "href": "/mdr/sdtm/2-0",
      "title": "Study Data Tabulation Model Version 2.0",
      "type": "Foundational Model"
    },
    "priorVersion": {
      "href": "/mdr/sdtmig/3-3",
      "title": "Study Data Tabulation Model Implementation Guide: Human Clinical Trials",
      "type": "Implementation Guide"
    },
    "self": {
      "href": "/mdr/sdtmig/3-4",
      "title": "Study Data Tabulation Model Implementation Guide: Human Clinical Trials",
      "type": "Implementation Guide"
    }
  },
  "classes": [
    {
      "_links": {
        "modelClass": {
          "href": "/mdr/sdtm/2-0/classes/GeneralObservations",
          "title": "General Observations",
          "type": "Class"
        },
        "parentProduct": {
          "href": "/mdr/sdtmig/3-4",
          "title": "Study Data Tabulation Model Implementation Guide: Human Clinical Trials",
          "type": "Implementation Guide"
        },
        "priorVersion": {
          "href": "/mdr/sdtmig/3-3/classes/GeneralObservations",
          "title": "General Observation Class",
          "type": "Class"
        },
        "self": {
          "href": "/mdr/sdtmig/3-4/classes/GeneralObservations",
          "title": "General Observations",
          "type": "Class"
        },
        "subclasses": [
          {
            "href": "/mdr/sdtmig/3-4/classes/Interventions",
            "title": "Interventions",
            "type": "Class"
          },
          {
            "href": "/mdr/sdtmig/3-4/classes/Events",
            "title": "Events",
            "type": "Class"
          },
          {
            "href": "/mdr/sdtmig/3-4/classes/Findings",
            "title": "Findings",
            "type": "Class"
          }
        ]
      },
      "description": "The majority of observations collected during a study can be divided among three general classes: Interventions, Events, or Findings. Datasets based on any of the general observation classes share a set of common Identifier and Timing variables. As a general rule, any valid Identifier or Timing variable is permissible for use in any submission dataset based on a general observation class. (Source: SDTM v2.0, Section 3.1)",
      "label": "General Observations",
      "name": "General Observations",
      "ordinal": "1"
    },
    {
      "_links": {
        "modelClass": {
          "href": "/mdr/sdtm/2-0/classes/Interventions",
          "title": "Interventions",
          "type": "Class"
        },
        "parentClass": {
          "href": "/mdr/sdtmig/3-4/classes/GeneralObservations",
          "title": "General Observations",
          "type": "Class"
        },
        "parentProduct": {
          "href": "/mdr/sdtmig/3-4",
          "title": "Study Data Tabulation Model Implementation Guide: Human Clinical Trials",
          "type": "Implementation Guide"
        },
        "priorVersion": {
          "href": "/mdr/sdtmig/3-3/classes/Interventions",
          "title": "Interventions Observation Class",
          "type": "Class"
        },
        "self": {
          "href": "/mdr/sdtmig/3-4/classes/Interventions",
          "title": "Interventions",
          "type": "Class"
        }
      },
      "datasets": [
        {
          "_links": {
            "parentClass": {
              "href": "/mdr/sdtmig/3-4/classes/Interventions",
              "title": "Interventions",
              "type": "Class"
            },
            "parentProduct": {
              "href": "/mdr/sdtmig/3-4",
              "title": "Study Data Tabulation Model Implementation Guide: Human Clinical Trials",
              "type": "Implementation Guide"
            },
            "priorVersion": {
              "href": "/mdr/sdtmig/3-3/datasets/AG",
              "title": "Procedure Agents",
              "type": "SDTM Dataset"
            },
            "self": {
              "href": "/mdr/sdtmig/3-4/datasets/AG",
              "title": "Procedure Agents",
              "type": "SDTM Dataset"
            }
          },
          "datasetStructure": "One record per recorded intervention occurrence per subject",
          "datasetVariables": [
            {
              "_links": {
                "modelClassVariable": {
                  "href": "/mdr/sdtm/2-0/classes/GeneralObservations/variables/STUDYID",
                  "title": "Study Identifier",
                  "type": "SDTM Class Variable"
                },
                "parentDataset": {
                  "href": "/mdr/sdtmig/3-4/datasets/AG",
                  "title": "Procedure Agents",
                  "type": "SDTM Dataset"
                },
                "parentProduct": {
                  "href": "/mdr/sdtmig/3-4",
                  "title": "Study Data Tabulation Model Implementation Guide: Human Clinical Trials",
                  "type": "Implementation Guide"
                },
                "priorVersion": {
                  "href": "/mdr/sdtmig/3-3/datasets/AG/variables/STUDYID",
                  "title": "Study Identifier",
                  "type": "SDTM Dataset Variable"
                },
                "rootItem": {
                  "href": "/mdr/root/sdtmig/datasets/AG/variables/STUDYID",
                  "title": "Version-agnostic anchor resource for SDTMIG variable AG.STUDYID",
                  "type": "Root Data Element"
                },
                "self": {
                  "href": "/mdr/sdtmig/3-4/datasets/AG/variables/STUDYID",
                  "title": "Study Identifier",
                  "type": "SDTM Dataset Variable"
                }
              },
              "core": "Req",
              "description": "Unique identifier for a study.",
              "label": "Study Identifier",
              "name": "STUDYID",
              "ordinal": "1",
              "role": "Identifier",
              "simpleDatatype": "Char"
            },
            {
              "_links": {
                "modelClassVariable": {
                  "href": "/mdr/sdtm/2-0/classes/GeneralObservations/variables/DOMAIN",
                  "title": "Domain Abbreviation",
                  "type": "SDTM Class Variable"
                },
                "parentDataset": {
                  "href": "/mdr/sdtmig/3-4/datasets/AG",
                  "title": "Procedure Agents",
                  "type": "SDTM Dataset"
                },
                "parentProduct": {
                  "href": "/mdr/sdtmig/3-4",
                  "title": "Study Data Tabulation Model Implementation Guide: Human Clinical Trials",
                  "type": "Implementation Guide"
                },
                "priorVersion": {
                  "href": "/mdr/sdtmig/3-3/datasets/AG/variables/DOMAIN",
                  "title": "Domain Abbreviation",
                  "type": "SDTM Dataset Variable"
                },
                "rootItem": {
                  "href": "/mdr/root/sdtmig/datasets/AG/variables/DOMAIN",
                  "title": "Version-agnostic anchor resource for SDTMIG variable AG.DOMAIN",
                  "type": "Root Data Element"
                },
                "self": {
                  "href": "/mdr/sdtmig/3-4/datasets/AG/variables/DOMAIN",
                  "title": "Domain Abbreviation",
                  "type": "SDTM Dataset Variable"
                }
              },
              "core": "Req",
              "description": "Two-character abbreviation for the domain.",
              "label": "Domain Abbreviation",
              "name": "DOMAIN",
              "ordinal": "2",
              "role": "Identifier",
              "simpleDatatype": "Char",
              "valueList": [
                "AG"
              ]
            },
            {
              "_links": {
                "modelClassVariable": {
                  "href": "/mdr/sdtm/2-0/classes/GeneralObservations/variables/USUBJID",
                  "title": "Unique Subject Identifier",
                  "type": "SDTM Class Variable"
                },
                "parentDataset": {
                  "href": "/mdr/sdtmig/3-4/datasets/AG",
                  "title": "Procedure Agents",
                  "type": "SDTM Dataset"
                },
                "parentProduct": {
                  "href": "/mdr/sdtmig/3-4",
                  "title": "Study Data Tabulation Model Implementation Guide: Human Clinical Trials",
                  "type": "Implementation Guide"
                },
                "priorVersion": {
                  "href": "/mdr/sdtmig/3-3/datasets/AG/variables/USUBJID",
                  "title": "Unique Subject Identifier",
                  "type": "SDTM Dataset Variable"
                },
                "rootItem": {
                  "href": "/mdr/root/sdtmig/datasets/AG/variables/USUBJID",
                  "title": "Version-agnostic anchor resource for SDTMIG variable AG.USUBJID",
                  "type": "Root Data Element"
                },
                "self": {
                  "href": "/mdr/sdtmig/3-4/datasets/AG/variables/USUBJID",
                  "title": "Unique Subject Identifier",
                  "type": "SDTM Dataset Variable"
                }
              },
              "core": "Req",
              "description": "Identifier used to uniquely identify a subject across all studies for all applications or submissions involving the product.",
              "label": "Unique Subject Identifier",
              "name": "USUBJID",
              "ordinal": "3",
              "role": "Identifier",
              "simpleDatatype": "Char"
            },
            {
              "_links": {
                "modelClassVariable": {
                  "href": "/mdr/sdtm/2-0/classes/GeneralObservations/variables/--SEQ",
                  "title": "Sequence Number",
                  "type": "SDTM Class Variable"
                },
                "parentDataset": {
                  "href": "/mdr/sdtmig/3-4/datasets/AG",
                  "title": "Procedure Agents",
                  "type": "SDTM Dataset"
                },
                "parentProduct": {
                  "href": "/mdr/sdtmig/3-4",
                  "title": "Study Data Tabulation Model Implementation Guide: Human Clinical Trials",
                  "type": "Implementation Guide"
                },
                "priorVersion": {
                  "href": "/mdr/sdtmig/3-3/datasets/AG/variables/AGSEQ",
                  "title": "Sequence Number",
                  "type": "SDTM Dataset Variable"
                },
                "rootItem": {
                  "href": "/mdr/root/sdtmig/datasets/AG/variables/AGSEQ",
                  "title": "Version-agnostic anchor resource for SDTMIG variable AG.AGSEQ",
                  "type": "Root Data Element"
                },
                "self": {
                  "href": "/mdr/sdtmig/3-4/datasets/AG/variables/AGSEQ",
                  "title": "Sequence Number",
                  "type": "SDTM Dataset Variable"
                }
              },
              "core": "Req",
              "description": "Sequence number given to ensure uniqueness of subject records within a domain. May be any valid number.",
              "label": "Sequence Number",
              "name": "AGSEQ",
              "ordinal": "4",
              "role": "Identifier",
              "simpleDatatype": "Num"
            },
            {
              "_links": {
                "modelClassVariable": {
                  "href": "/mdr/sdtm/2-0/classes/GeneralObservations/variables/--GRPID",
                  "title": "Group ID",
                  "type": "SDTM Class Variable"
                },
                "parentDataset": {
                  "href": "/mdr/sdtmig/3-4/datasets/AG",
                  "title": "Procedure Agents",
                  "type": "SDTM Dataset"
                },
                "parentProduct": {
                  "href": "/mdr/sdtmig/3-4",
                  "title": "Study Data Tabulation Model Implementation Guide: Human Clinical Trials",
                  "type": "Implementation Guide"
                },
                "priorVersion": {
                  "href": "/mdr/sdtmig/3-3/datasets/AG/variables/AGGRPID",
                  "title": "Group ID",
                  "type": "SDTM Dataset Variable"
                },
                "rootItem": {
                  "href": "/mdr/root/sdtmig/datasets/AG/variables/AGGRPID",
                  "title": "Version-agnostic anchor resource for SDTMIG variable AG.AGGRPID",
                  "type": "Root Data Element"
                },
                "self": {
                  "href": "/mdr/sdtmig/3-4/datasets/AG/variables/AGGRPID",
                  "title": "Group ID",
                  "type": "SDTM Dataset Variable"
                }
              },
              "core": "Perm",
              "description": "Used to tie together a block of related records in a single domain for a subject.",
              "label": "Group ID",
              "name": "AGGRPID",
              "ordinal": "5",
              "role": "Identifier",
              "simpleDatatype": "Char"
            },
            {
              "_links": {
                "modelClassVariable": {
                  "href": "/mdr/sdtm/2-0/classes/GeneralObservations/variables/--SPID",
                  "title": "Sponsor-Defined Identifier",
                  "type": "SDTM Class Variable"
                },
                "parentDataset": {
                  "href": "/mdr/sdtmig/3-4/datasets/AG",
                  "title": "Procedure Agents",
                  "type": "SDTM Dataset"
                },
                "parentProduct": {
                  "href": "/mdr/sdtmig/3-4",
                  "title": "Study Data Tabulation Model Implementation Guide: Human Clinical Trials",
                  "type": "Implementation Guide"
                },
                "priorVersion": {
                  "href": "/mdr/sdtmig/3-3/datasets/AG/variables/AGSPID",
                  "title": "Sponsor-Defined Identifier",
                  "type": "SDTM Dataset Variable"
                },
                "rootItem": {
                  "href": "/mdr/root/sdtmig/datasets/AG/variables/AGSPID",
                  "title": "Version-agnostic anchor resource for SDTMIG variable AG.AGSPID",
                  "type": "Root Data Element"
                },
                "self": {
                  "href": "/mdr/sdtmig/3-4/datasets/AG/variables/AGSPID",
                  "title": "Sponsor-Defined Identifier",
                  "type": "SDTM Dataset Variable"
                }
              },
              "core": "Perm",
              "description": "Sponsor-defined reference number. May be preprinted on the CRF as an explicit line identifier or defined in the sponsor's operational database. Example: Line number from the procedure or test page.",
              "label": "Sponsor-Defined Identifier",
              "name": "AGSPID",
              "ordinal": "6",
              "role": "Identifier",
              "simpleDatatype": "Char"
            },
            {
              "_links": {
                "modelClassVariable": {
                  "href": "/mdr/sdtm/2-0/classes/GeneralObservations/variables/--LNKID",
                  "title": "Link ID",
                  "type": "SDTM Class Variable"
                },
                "parentDataset": {
                  "href": "/mdr/sdtmig/3-4/datasets/AG",
                  "title": "Procedure Agents",
                  "type": "SDTM Dataset"
                },
                "parentProduct": {
                  "href": "/mdr/sdtmig/3-4",
                  "title": "Study Data Tabulation Model Implementation Guide: Human Clinical Trials",
                  "type": "Implementation Guide"
                },
                "priorVersion": {
                  "href": "/mdr/sdtmig/3-3/datasets/AG/variables/AGLNKID",
                  "title": "Link ID",
                  "type": "SDTM Dataset Variable"
                },
                "rootItem": {
                  "href": "/mdr/root/sdtmig/datasets/AG/variables/AGLNKID",
                  "title": "Version-agnostic anchor resource for SDTMIG variable AG.AGLNKID",
                  "type": "Root Data Element"
                },
                "self": {
                  "href": "/mdr/sdtmig/3-4/datasets/AG/variables/AGLNKID",
                  "title": "Link ID",
                  "type": "SDTM Dataset Variable"
                }
              },
              "core": "Perm",
              "description": "Identifier used to link related records across domains.This may be a one-to-one or a one-to-many relationship.",
              "label": "Link ID",
              "name": "AGLNKID",
              "ordinal": "7",
              "role": "Identifier",
              "simpleDatatype": "Char"
            },
            {
              "_links": {
                "modelClassVariable": {
                  "href": "/mdr/sdtm/2-0/classes/GeneralObservations/variables/--LNKGRP",
                  "title": "Link Group ID",
                  "type": "SDTM Class Variable"
                },
                "parentDataset": {
                  "href": "/mdr/sdtmig/3-4/datasets/AG",
                  "title": "Procedure Agents",
                  "type": "SDTM Dataset"
                },
                "parentProduct": {
                  "href": "/mdr/sdtmig/3-4",
                  "title": "Study Data Tabulation Model Implementation Guide: Human Clinical Trials",
                  "type": "Implementation Guide"
                },
                "priorVersion": {
                  "href": "/mdr/sdtmig/3-3/datasets/AG/variables/AGLNKGRP",
                  "title": "Link Group ID",
                  "type": "SDTM Dataset Variable"
                },
                "rootItem": {
                  "href": "/mdr/root/sdtmig/datasets/AG/variables/AGLNKGRP",
                  "title": "Version-agnostic anchor resource for SDTMIG variable AG.AGLNKGRP",
                  "type": "Root Data Element"
                },
                "self": {
                  "href": "/mdr/sdtmig/3-4/datasets/AG/variables/AGLNKGRP",
                  "title": "Link Group ID",
                  "type": "SDTM Dataset Variable"
                }
              },
              "core": "Perm",
              "description": "Identifier used to link related records across domains.This will usually be a many-to-one relationship.",
              "label": "Link Group ID",
              "name": "AGLNKGRP",
              "ordinal": "8",
              "role": "Identifier",
              "simpleDatatype": "Char"
            },
            {
              "_links": {
                "modelClassVariable": {
                  "href": "/mdr/sdtm/2-0/classes/Interventions/variables/--TRT",
                  "title": "Name of Treatment",
                  "type": "SDTM Class Variable"
                },
                "parentDataset": {
                  "href": "/mdr/sdtmig/3-4/datasets/AG",
                  "title": "Procedure Agents",
                  "type": "SDTM Dataset"
                },
                "parentProduct": {
                  "href": "/mdr/sdtmig/3-4",
                  "title": "Study Data Tabulation Model Implementation Guide: Human Clinical Trials",
                  "type": "Implementation Guide"
                },
                "priorVersion": {
                  "href": "/mdr/sdtmig/3-3/datasets/AG/variables/AGTRT",
                  "title": "Reported Agent Name",
                  "type": "SDTM Dataset Variable"
                },
                "rootItem": {
                  "href": "/mdr/root/sdtmig/datasets/AG/variables/AGTRT",
                  "title": "Version-agnostic anchor resource for SDTMIG variable AG.AGTRT",
                  "type": "Root Data Element"
                },
                "self": {
                  "href": "/mdr/sdtmig/3-4/datasets/AG/variables/AGTRT",
                  "title": "Reported Agent Name",
                  "type": "SDTM Dataset Variable"
                }
              },
              "core": "Req",
              "description": "Verbatim medication name that is either preprinted or collected on a CRF.",
              "label": "Reported Agent Name",
              "name": "AGTRT",
              "ordinal": "9",
              "role": "Topic",
              "simpleDatatype": "Char"
            },
            {
              "_links": {
                "modelClassVariable": {
                  "href": "/mdr/sdtm/2-0/classes/Interventions/variables/--MODIFY",
                  "title": "Modified Treatment Name",
                  "type": "SDTM Class Variable"
                },
                "parentDataset": {
                  "href": "/mdr/sdtmig/3-4/datasets/AG",
                  "title": "Procedure Agents",
                  "type": "SDTM Dataset"
                },
                "parentProduct": {
                  "href": "/mdr/sdtmig/3-4",
                  "title": "Study Data Tabulation Model Implementation Guide: Human Clinical Trials",
                  "type": "Implementation Guide"
                },
                "priorVersion": {
                  "href": "/mdr/sdtmig/3-3/datasets/AG/variables/AGMODIFY",
                  "title": "Modified Reported Name",
                  "type": "SDTM Dataset Variable"
                },
                "rootItem": {
                  "href": "/mdr/root/sdtmig/datasets/AG/variables/AGMODIFY",
                  "title": "Version-agnostic anchor resource for SDTMIG variable AG.AGMODIFY",
                  "type": "Root Data Element"
                },
                "self": {
                  "href": "/mdr/sdtmig/3-4/datasets/AG/variables/AGMODIFY",
                  "title": "Modified Reported Name",
                  "type": "SDTM Dataset Variable"
                }
              },
              "core": "Perm",
              "description": "If AGTRT is modified to facilitate coding, then AGMODIFY will contain the modified text.",
              "label": "Modified Reported Name",
              "name": "AGMODIFY",
              "ordinal": "10",
              "role": "Synonym Qualifier",
              "simpleDatatype": "Char"
            },
            {
              "_links": {
                "modelClassVariable": {
                  "href": "/mdr/sdtm/2-0/classes/Interventions/variables/--DECOD",
                  "title": "Standardized Treatment Name",
                  "type": "SDTM Class Variable"
                },
                "parentDataset": {
                  "href": "/mdr/sdtmig/3-4/datasets/AG",
                  "title": "Procedure Agents",
                  "type": "SDTM Dataset"
                },
                "parentProduct": {
                  "href": "/mdr/sdtmig/3-4",
                  "title": "Study Data Tabulation Model Implementation Guide: Human Clinical Trials",
                  "type": "Implementation Guide"
                },
                "priorVersion": {
                  "href": "/mdr/sdtmig/3-3/datasets/AG/variables/AGDECOD",
                  "title": "Standardized Agent Name",
                  "type": "SDTM Dataset Variable"
                },
                "rootItem": {
                  "href": "/mdr/root/sdtmig/datasets/AG/variables/AGDECOD",
                  "title": "Version-agnostic anchor resource for SDTMIG variable AG.AGDECOD",
                  "type": "Root Data Element"
                },
                "self": {
                  "href": "/mdr/sdtmig/3-4/datasets/AG/variables/AGDECOD",
                  "title": "Standardized Agent Name",
                  "type": "SDTM Dataset Variable"
                }
              },
              "core": "Perm",
              "description": "Standardized or dictionary-derived text description of AGTRT or AGMODIFY. Equivalent to the generic medication name in WHO Drug. The sponsor is expected to provide the dictionary name and version used to map the terms utilizing the external codelist element in the Define-XML document. If an intervention term does not have a decode value in the dictionary, then AGDECOD will be left blank.",
              "label": "Standardized Agent Name",
              "name": "AGDECOD",
              "ordinal": "11",
              "role": "Synonym Qualifier",
              "simpleDatatype": "Char"
            },
            {
              "_links": {
                "modelClassVariable": {
                  "href": "/mdr/sdtm/2-0/classes/Interventions/variables/--CAT",
                  "title": "Category",
                  "type": "SDTM Class Variable"
                },
                "parentDataset": {
                  "href": "/mdr/sdtmig/3-4/datasets/AG",
                  "title": "Procedure Agents",
                  "type": "SDTM Dataset"
                },
                "parentProduct": {
                  "href": "/mdr/sdtmig/3-4",
                  "title": "Study Data Tabulation Model Implementation Guide: Human Clinical Trials",
                  "type": "Implementation Guide"
                },
                "priorVersion": {
                  "href": "/mdr/sdtmig/3-3/datasets/AG/variables/AGCAT",
                  "title": "Category for Agent",
                  "type": "SDTM Dataset Variable"
                },
                "rootItem": {
                  "href": "/mdr/root/sdtmig/datasets/AG/variables/AGCAT",
                  "title": "Version-agnostic anchor resource for SDTMIG variable AG.AGCAT",
                  "type": "Root Data Element"
                },
                "self": {
                  "href": "/mdr/sdtmig/3-4/datasets/AG/variables/AGCAT",
                  "title": "Category for Agent",
                  "type": "SDTM Dataset Variable"
                }
              },
              "core": "Perm",
              "description": "Used to define a category of agent. Examples: \"CHALLENGE AGENT\", \"PET TRACER\".",
              "label": "Category for Agent",
              "name": "AGCAT",
              "ordinal": "12",
              "role": "Grouping Qualifier",
              "simpleDatatype": "Char"
            },
            {
              "_links": {
                "modelClassVariable": {
                  "href": "/mdr/sdtm/2-0/classes/Interventions/variables/--SCAT",
                  "title": "Subcategory",
                  "type": "SDTM Class Variable"
                },
                "parentDataset": {
                  "href": "/mdr/sdtmig/3-4/datasets/AG",
                  "title": "Procedure Agents",
                  "type": "SDTM Dataset"
                },
                "parentProduct": {
                  "href": "/mdr/sdtmig/3-4",
                  "title": "Study Data Tabulation Model Implementation Guide: Human Clinical Trials",
                  "type": "Implementation Guide"
                },
                "priorVersion": {
                  "href": "/mdr/sdtmig/3-3/datasets/AG/variables/AGSCAT",
                  "title": "Subcategory for Agent",
                  "type": "SDTM Dataset Variable"
                },
                "rootItem": {
                  "href": "/mdr/root/sdtmig/datasets/AG/variables/AGSCAT",
                  "title": "Version-agnostic anchor resource for SDTMIG variable AG.AGSCAT",
                  "type": "Root Data Element"
                },
                "self": {
                  "href": "/mdr/sdtmig/3-4/datasets/AG/variables/AGSCAT",
                  "title": "Subcategory for Agent",
                  "type": "SDTM Dataset Variable"
                }
              },
              "core": "Perm",
              "description": "Further categorization of agent.",
              "label": "Subcategory for Agent",
              "name": "AGSCAT",
              "ordinal": "13",
              "role": "Grouping Qualifier",
              "simpleDatatype": "Char"
            },
            {
              "_links": {
                "codelist": [
                  {
                    "href": "/mdr/root/ct/sdtmct/codelists/C66742",
                    "title": "Version-agnostic anchor resource for codelist C66742",
                    "type": "Root Value Domain"
                  }
                ],
                "modelClassVariable": {
                  "href": "/mdr/sdtm/2-0/classes/Interventions/variables/--PRESP",
                  "title": "Pre-Specified",
                  "type": "SDTM Class Variable"
                },
                "parentDataset": {
                  "href": "/mdr/sdtmig/3-4/datasets/AG",
                  "title": "Procedure Agents",
                  "type": "SDTM Dataset"
                },
                "parentProduct": {
                  "href": "/mdr/sdtmig/3-4",
                  "title": "Study Data Tabulation Model Implementation Guide: Human Clinical Trials",
                  "type": "Implementation Guide"
                },
                "priorVersion": {
                  "href": "/mdr/sdtmig/3-3/datasets/AG/variables/AGPRESP",
                  "title": "AG Pre-Specified",
                  "type": "SDTM Dataset Variable"
                },
                "rootItem": {
                  "href": "/mdr/root/sdtmig/datasets/AG/variables/AGPRESP",
                  "title": "Version-agnostic anchor resource for SDTMIG variable AG.AGPRESP",
                  "type": "Root Data Element"
                },
                "self": {
                  "href": "/mdr/sdtmig/3-4/datasets/AG/variables/AGPRESP",
                  "title": "AG Pre-Specified",
                  "type": "SDTM Dataset Variable"
                }
              },
              "core": "Perm",
              "description": "Used to indicate whether (\"Y\"/null) information about the use of a specific agent was solicited on the CRF.",
              "label": "AG Pre-Specified",
              "name": "AGPRESP",
              "ordinal": "14",
              "role": "Variable Qualifier",
              "simpleDatatype": "Char"
            },
            {
              "_links": {
                "codelist": [
                  {
                    "href": "/mdr/root/ct/sdtmct/codelists/C66742",
                    "title": "Version-agnostic anchor resource for codelist C66742",
                    "type": "Root Value Domain"
                  }
                ],
                "modelClassVariable": {
                  "href": "/mdr/sdtm/2-0/classes/Interventions/variables/--OCCUR",
                  "title": "Occurrence Indicator",
                  "type": "SDTM Class Variable"
                },
                "parentDataset": {
                  "href": "/mdr/sdtmig/3-4/datasets/AG",
                  "title": "Procedure Agents",
                  "type": "SDTM Dataset"
                },
                "parentProduct": {
                  "href": "/mdr/sdtmig/3-4",
                  "title": "Study Data Tabulation Model Implementation Guide: Human Clinical Trials",
                  "type": "Implementation Guide"
                },
                "priorVersion": {
                  "href": "/mdr/sdtmig/3-3/datasets/AG/variables/AGOCCUR",
                  "title": "AG Occurrence",
                  "type": "SDTM Dataset Variable"
                },
                "rootItem": {
                  "href": "/mdr/root/sdtmig/datasets/AG/variables/AGOCCUR",
                  "title": "Version-agnostic anchor resource for SDTMIG variable AG.AGOCCUR",
                  "type": "Root Data Element"
                },
                "self": {
                  "href": "/mdr/sdtmig/3-4/datasets/AG/variables/AGOCCUR",
                  "title": "AG Occurrence",
                  "type": "SDTM Dataset Variable"
                }
              },
              "core": "Perm",
              "description": "When the use of specific agent is solicited, AGOCCUR is used to indicate whether (\"Y\"/\"N\") use of the agent occurred. Values are null for agents not specifically solicited.",
              "label": "AG Occurrence",
              "name": "AGOCCUR",
              "ordinal": "15",
              "role": "Record Qualifier",
              "simpleDatatype": "Char"
            },
            {
              "_links": {
                "codelist": [
                  {
                    "href": "/mdr/root/ct/sdtmct/codelists/C66789",
                    "title": "Version-agnostic anchor resource for codelist C66789",
                    "type": "Root Value Domain"
                  }
                ],
                "modelClassVariable": {
                  "href": "/mdr/sdtm/2-0/classes/Interventions/variables/--STAT",
                  "title": "Completion Status",
                  "type": "SDTM Class Variable"
                },
                "parentDataset": {
                  "href": "/mdr/sdtmig/3-4/datasets/AG",
                  "title": "Procedure Agents",
                  "type": "SDTM Dataset"
                },
                "parentProduct": {
                  "href": "/mdr/sdtmig/3-4",
                  "title": "Study Data Tabulation Model Implementation Guide: Human Clinical Trials",
                  "type": "Implementation Guide"
                },
                "priorVersion": {
                  "href": "/mdr/sdtmig/3-3/datasets/AG/variables/AGSTAT",
                  "title": "Completion Status",
                  "type": "SDTM Dataset Variable"
                },
                "rootItem": {
                  "href": "/mdr/root/sdtmig/datasets/AG/variables/AGSTAT",
                  "title": "Version-agnostic anchor resource for SDTMIG variable AG.AGSTAT",
                  "type": "Root Data Element"
                },
                "self": {
                  "href": "/mdr/sdtmig/3-4/datasets/AG/variables/AGSTAT",
                  "title": "Completion Status",
                  "type": "SDTM Dataset Variable"
                }
              },
              "core": "Perm",
              "description": "Used to indicate that a question about a prespecified agent was not answered. Should be null or have a value of \"NOT DONE\".",
              "label": "Completion Status",
              "name": "AGSTAT",
              "ordinal": "16",
              "role": "Record Qualifier",
              "simpleDatatype": "Char"
            },
            {
              "_links": {
                "modelClassVariable": {
                  "href": "/mdr/sdtm/2-0/classes/Interventions/variables/--REASND",
                  "title": "Reason Not Done",
                  "type": "SDTM Class Variable"
                },
                "parentDataset": {
                  "href": "/mdr/sdtmig/3-4/datasets/AG",
                  "title": "Procedure Agents",
                  "type": "SDTM Dataset"
                },
                "parentProduct": {
                  "href": "/mdr/sdtmig/3-4",
                  "title": "Study Data Tabulation Model Implementation Guide: Human Clinical Trials",
                  "type": "Implementation Guide"
                },
                "priorVersion": {
                  "href": "/mdr/sdtmig/3-3/datasets/AG/variables/AGREASND",
                  "title": "Reason Procedure Agent Not Collected",
                  "type": "SDTM Dataset Variable"
                },
                "rootItem": {
                  "href": "/mdr/root/sdtmig/datasets/AG/variables/AGREASND",
                  "title": "Version-agnostic anchor resource for SDTMIG variable AG.AGREASND",
                  "type": "Root Data Element"
                },
                "self": {
                  "href": "/mdr/sdtmig/3-4/datasets/AG/variables/AGREASND",
                  "title": "Reason Procedure Agent Not Collected",
                  "type": "SDTM Dataset Variable"
                }
              },
              "core": "Perm",
              "description": "Describes the reason a response to a question about the occurrence of a procedure agent was not collected. Used in conjunction with AGSTAT when value is \"NOT DONE\".",
              "label": "Reason Procedure Agent Not Collected",
              "name": "AGREASND",
              "ordinal": "17",
              "role": "Record Qualifier",
              "simpleDatatype": "Char"
            },
            {
              "_links": {
                "modelClassVariable": {
                  "href": "/mdr/sdtm/2-0/classes/Interventions/variables/--CLAS",
                  "title": "Class",
                  "type": "SDTM Class Variable"
                },
                "parentDataset": {
                  "href": "/mdr/sdtmig/3-4/datasets/AG",
                  "title": "Procedure Agents",
                  "type": "SDTM Dataset"
                },
                "parentProduct": {
                  "href": "/mdr/sdtmig/3-4",
                  "title": "Study Data Tabulation Model Implementation Guide: Human Clinical Trials",
                  "type": "Implementation Guide"
                },
                "priorVersion": {
                  "href": "/mdr/sdtmig/3-3/datasets/AG/variables/AGCLAS",
                  "title": "Agent Class",
                  "type": "SDTM Dataset Variable"
                },
                "rootItem": {
                  "href": "/mdr/root/sdtmig/datasets/AG/variables/AGCLAS",
                  "title": "Version-agnostic anchor resource for SDTMIG variable AG.AGCLAS",
                  "type": "Root Data Element"
                },
                "self": {
                  "href": "/mdr/sdtmig/3-4/datasets/AG/variables/AGCLAS",
                  "title": "Agent Class",
                  "type": "SDTM Dataset Variable"
                }
              },
              "core": "Perm",
              "description": "Drug class. May be obtained from coding. When coding to a single class, populate with class value. If using a dictionary and coding to multiple classes, follow guidance in Section 4.2.8.3, Multiple Values for a Non-result Qualifier Variable, or omit AGCLAS.",
              "label": "Agent Class",
              "name": "AGCLAS",
              "ordinal": "18",
              "role": "Variable Qualifier",
              "simpleDatatype": "Char"
            },
            {
              "_links": {
                "modelClassVariable": {
                  "href": "/mdr/sdtm/2-0/classes/Interventions/variables/--CLASCD",
                  "title": "Class Code",
                  "type": "SDTM Class Variable"
                },
                "parentDataset": {
                  "href": "/mdr/sdtmig/3-4/datasets/AG",
                  "title": "Procedure Agents",
                  "type": "SDTM Dataset"
                },
                "parentProduct": {
                  "href": "/mdr/sdtmig/3-4",
                  "title": "Study Data Tabulation Model Implementation Guide: Human Clinical Trials",
                  "type": "Implementation Guide"
                },
                "priorVersion": {
                  "href": "/mdr/sdtmig/3-3/datasets/AG/variables/AGCLASCD",
                  "title": "Agent Class Code",
                  "type": "SDTM Dataset Variable"
                },
                "rootItem": {
                  "href": "/mdr/root/sdtmig/datasets/AG/variables/AGCLASCD",
                  "title": "Version-agnostic anchor resource for SDTMIG variable AG.AGCLASCD",
                  "type": "Root Data Element"
                },
                "self": {
                  "href": "/mdr/sdtmig/3-4/datasets/AG/variables/AGCLASCD",
                  "title": "Agent Class Code",
                  "type": "SDTM Dataset Variable"
                }
              },
              "core": "Perm",
              "description": "Class code corresponding to AGCLAS. Drug class. May be obtained from coding. When coding to a single class, populate with class code. If using a dictionary and coding to multiple classes, follow guidance in Section 4.2.8.3, Multiple Values for a Non-result Qualifier Variable, or omit AGCLASCD.",
              "label": "Agent Class Code",
              "name": "AGCLASCD",
              "ordinal": "19",
              "role": "Variable Qualifier",
              "simpleDatatype": "Char"
            },
            {
              "_links": {
                "modelClassVariable": {
                  "href": "/mdr/sdtm/2-0/classes/Interventions/variables/--DOSE",
                  "title": "Dose",
                  "type": "SDTM Class Variable"
                },
                "parentDataset": {
                  "href": "/mdr/sdtmig/3-4/datasets/AG",
                  "title": "Procedure Agents",
                  "type": "SDTM Dataset"
                },
                "parentProduct": {
                  "href": "/mdr/sdtmig/3-4",
                  "title": "Study Data Tabulation Model Implementation Guide: Human Clinical Trials",
                  "type": "Implementation Guide"
                },
                "priorVersion": {
                  "href": "/mdr/sdtmig/3-3/datasets/AG/variables/AGDOSE",
                  "title": "Dose per Administration",
                  "type": "SDTM Dataset Variable"
                },
                "rootItem": {
                  "href": "/mdr/root/sdtmig/datasets/AG/variables/AGDOSE",
                  "title": "Version-agnostic anchor resource for SDTMIG variable AG.AGDOSE",
                  "type": "Root Data Element"
                },
                "self": {
                  "href": "/mdr/sdtmig/3-4/datasets/AG/variables/AGDOSE",
                  "title": "Dose per Administration",
                  "type": "SDTM Dataset Variable"
                }
              },
              "core": "Perm",
              "description": "Amount of AGTRT taken.",
              "label": "Dose per Administration",
              "name": "AGDOSE",
              "ordinal": "20",
              "role": "Record Qualifier",
              "simpleDatatype": "Num"
            },
            {
              "_links": {
                "modelClassVariable": {
                  "href": "/mdr/sdtm/2-0/classes/Interventions/variables/--DOSTXT",
                  "title": "Dose Description",
                  "type": "SDTM Class Variable"
                },
                "parentDataset": {
                  "href": "/mdr/sdtmig/3-4/datasets/AG",
                  "title": "Procedure Agents",
                  "type": "SDTM Dataset"
                },
                "parentProduct": {
                  "href": "/mdr/sdtmig/3-4",
                  "title": "Study Data Tabulation Model Implementation Guide: Human Clinical Trials",
                  "type": "Implementation Guide"
                },
                "priorVersion": {
                  "href": "/mdr/sdtmig/3-3/datasets/AG/variables/AGDOSTXT",
                  "title": "Dose Description",
                  "type": "SDTM Dataset Variable"
                },
                "rootItem": {
                  "href": "/mdr/root/sdtmig/datasets/AG/variables/AGDOSTXT",
                  "title": "Version-agnostic anchor resource for SDTMIG variable AG.AGDOSTXT",
                  "type": "Root Data Element"
                },
                "self": {
                  "href": "/mdr/sdtmig/3-4/datasets/AG/variables/AGDOSTXT",
                  "title": "Dose Description",
                  "type": "SDTM Dataset Variable"
                }
              },
              "core": "Perm",
              "description": "Dosing amounts or a range of dosing information collected in text form. Units may be stored in AGDOSU. Examples: \"200-400\", \"15-20\".",
              "label": "Dose Description",
              "name": "AGDOSTXT",
              "ordinal": "21",
              "role": "Record Qualifier",
              "simpleDatatype": "Char"
            },
            {
              "_links": {
                "codelist": [
                  {
                    "href": "/mdr/root/ct/sdtmct/codelists/C71620",
                    "title": "Version-agnostic anchor resource for codelist C71620",
                    "type": "Root Value Domain"
                  }
                ],
                "modelClassVariable": {
                  "href": "/mdr/sdtm/2-0/classes/Interventions/variables/--DOSU",
                  "title": "Dose Units",
                  "type": "SDTM Class Variable"
                },
                "parentDataset": {
                  "href": "/mdr/sdtmig/3-4/datasets/AG",
                  "title": "Procedure Agents",
                  "type": "SDTM Dataset"
                },
                "parentProduct": {
                  "href": "/mdr/sdtmig/3-4",
                  "title": "Study Data Tabulation Model Implementation Guide: Human Clinical Trials",
                  "type": "Implementation Guide"
                },
                "priorVersion": {
                  "href": "/mdr/sdtmig/3-3/datasets/AG/variables/AGDOSU",
                  "title": "Dose Units",
                  "type": "SDTM Dataset Variable"
                },
                "rootItem": {
                  "href": "/mdr/root/sdtmig/datasets/AG/variables/AGDOSU",
                  "title": "Version-agnostic anchor resource for SDTMIG variable AG.AGDOSU",
                  "type": "Root Data Element"
                },
                "self": {
                  "href": "/mdr/sdtmig/3-4/datasets/AG/variables/AGDOSU",
                  "title": "Dose Units",
                  "type": "SDTM Dataset Variable"
                }
              },
              "core": "Perm",
              "description": "Units for AGDOSE and AGDOSTXT. Examples: \"ng\", \"mg\", \"mg/kg\".",
              "label": "Dose Units",
              "name": "AGDOSU",
              "ordinal": "22",
              "role": "Variable Qualifier",
              "simpleDatatype": "Char"
            },
            {
              "_links": {
                "codelist": [
                  {
                    "href": "/mdr/root/ct/sdtmct/codelists/C66726",
                    "title": "Version-agnostic anchor resource for codelist C66726",
                    "type": "Root Value Domain"
                  }
                ],
                "modelClassVariable": {
                  "href": "/mdr/sdtm/2-0/classes/Interventions/variables/--DOSFRM",
                  "title": "Dose Form",
                  "type": "SDTM Class Variable"
                },
                "parentDataset": {
                  "href": "/mdr/sdtmig/3-4/datasets/AG",
                  "title": "Procedure Agents",
                  "type": "SDTM Dataset"
                },
                "parentProduct": {
                  "href": "/mdr/sdtmig/3-4",
                  "title": "Study Data Tabulation Model Implementation Guide: Human Clinical Trials",
                  "type": "Implementation Guide"
                },
                "priorVersion": {
                  "href": "/mdr/sdtmig/3-3/datasets/AG/variables/AGDOSFRM",
                  "title": "Dose Form",
                  "type": "SDTM Dataset Variable"
                },
                "rootItem": {
                  "href": "/mdr/root/sdtmig/datasets/AG/variables/AGDOSFRM",
                  "title": "Version-agnostic anchor resource for SDTMIG variable AG.AGDOSFRM",
                  "type": "Root Data Element"
                },
                "self": {
                  "href": "/mdr/sdtmig/3-4/datasets/AG/variables/AGDOSFRM",
                  "title": "Dose Form",
                  "type": "SDTM Dataset Variable"
                }
              },
              "core": "Perm",
              "description": "Dose form for AGTRT. Examples: \"TABLET\", \"AEROSOL\".",
              "label": "Dose Form",
              "name": "AGDOSFRM",
              "ordinal": "23",
              "role": "Variable Qualifier",
              "simpleDatatype": "Char"
            },
            {
              "_links": {
                "codelist": [
                  {
                    "href": "/mdr/root/ct/sdtmct/codelists/C71113",
                    "title": "Version-agnostic anchor resource for codelist C71113",
                    "type": "Root Value Domain"
                  }
                ],
                "modelClassVariable": {
                  "href": "/mdr/sdtm/2-0/classes/Interventions/variables/--DOSFRQ",
                  "title": "Dosing Frequency per Interval",
                  "type": "SDTM Class Variable"
                },
                "parentDataset": {
                  "href": "/mdr/sdtmig/3-4/datasets/AG",
                  "title": "Procedure Agents",
                  "type": "SDTM Dataset"
                },
                "parentProduct": {
                  "href": "/mdr/sdtmig/3-4",
                  "title": "Study Data Tabulation Model Implementation Guide: Human Clinical Trials",
                  "type": "Implementation Guide"
                },
                "priorVersion": {
                  "href": "/mdr/sdtmig/3-3/datasets/AG/variables/AGDOSFRQ",
                  "title": "Dosing Frequency per Interval",
                  "type": "SDTM Dataset Variable"
                },
                "rootItem": {
                  "href": "/mdr/root/sdtmig/datasets/AG/variables/AGDOSFRQ",
                  "title": "Version-agnostic anchor resource for SDTMIG variable AG.AGDOSFRQ",
                  "type": "Root Data Element"
                },
                "self": {
                  "href": "/mdr/sdtmig/3-4/datasets/AG/variables/AGDOSFRQ",
                  "title": "Dosing Frequency per Interval",
                  "type": "SDTM Dataset Variable"
                }
              },
              "core": "Perm",
              "description": "Usually expressed as the number of repeated administrations of AGDOSE within a specific time period. Example: \"ONCE\".",
              "label": "Dosing Frequency per Interval",
              "name": "AGDOSFRQ",
              "ordinal": "24",
              "role": "Record Qualifier",
              "simpleDatatype": "Char"
            },
            {
              "_links": {
                "codelist": [
                  {
                    "href": "/mdr/root/ct/sdtmct/codelists/C66729",
                    "title": "Version-agnostic anchor resource for codelist C66729",
                    "type": "Root Value Domain"
                  }
                ],
                "modelClassVariable": {
                  "href": "/mdr/sdtm/2-0/classes/Interventions/variables/--ROUTE",
                  "title": "Route of Administration",
                  "type": "SDTM Class Variable"
                },
                "parentDataset": {
                  "href": "/mdr/sdtmig/3-4/datasets/AG",
                  "title": "Procedure Agents",
                  "type": "SDTM Dataset"
                },
                "parentProduct": {
                  "href": "/mdr/sdtmig/3-4",
                  "title": "Study Data Tabulation Model Implementation Guide: Human Clinical Trials",
                  "type": "Implementation Guide"
                },
                "priorVersion": {
                  "href": "/mdr/sdtmig/3-3/datasets/AG/variables/AGROUTE",
                  "title": "Route of Administration",
                  "type": "SDTM Dataset Variable"
                },
                "rootItem": {
                  "href": "/mdr/root/sdtmig/datasets/AG/variables/AGROUTE",
                  "title": "Version-agnostic anchor resource for SDTMIG variable AG.AGROUTE",
                  "type": "Root Data Element"
                },
                "self": {
                  "href": "/mdr/sdtmig/3-4/datasets/AG/variables/AGROUTE",
                  "title": "Route of Administration",
                  "type": "SDTM Dataset Variable"
                }
              },
              "core": "Perm",
              "description": "Route of administration for AGTRT. Example: \"ORAL\".",
              "label": "Route of Administration",
              "name": "AGROUTE",
              "ordinal": "25",
              "role": "Variable Qualifier",
              "simpleDatatype": "Char"
            },
            {
              "_links": {
                "modelClassVariable": {
                  "href": "/mdr/sdtm/2-0/classes/GeneralObservations/variables/VISITNUM",
                  "title": "Visit Number",
                  "type": "SDTM Class Variable"
                },
                "parentDataset": {
                  "href": "/mdr/sdtmig/3-4/datasets/AG",
                  "title": "Procedure Agents",
                  "type": "SDTM Dataset"
                },
                "parentProduct": {
                  "href": "/mdr/sdtmig/3-4",
                  "title": "Study Data Tabulation Model Implementation Guide: Human Clinical Trials",
                  "type": "Implementation Guide"
                },
                "priorVersion": {
                  "href": "/mdr/sdtmig/3-3/datasets/AG/variables/VISITNUM",
                  "title": "Visit Number",
                  "type": "SDTM Dataset Variable"
                },
                "rootItem": {
                  "href": "/mdr/root/sdtmig/datasets/AG/variables/VISITNUM",
                  "title": "Version-agnostic anchor resource for SDTMIG variable AG.VISITNUM",
                  "type": "Root Data Element"
                },
                "self": {
                  "href": "/mdr/sdtmig/3-4/datasets/AG/variables/VISITNUM",
                  "title": "Visit Number",
                  "type": "SDTM Dataset Variable"
                }
              },
              "core": "Exp",
              "description": "1. Clinical encounter number. \\n 2. Numeric version of VISIT, used for sorting.",
              "label": "Visit Number",
              "name": "VISITNUM",
              "ordinal": "26",
              "role": "Timing",
              "simpleDatatype": "Num"
            },
            {
              "_links": {
                "modelClassVariable": {
                  "href": "/mdr/sdtm/2-0/classes/GeneralObservations/variables/VISIT",
                  "title": "Visit Name",
                  "type": "SDTM Class Variable"
                },
                "parentDataset": {
                  "href": "/mdr/sdtmig/3-4/datasets/AG",
                  "title": "Procedure Agents",
                  "type": "SDTM Dataset"
                },
                "parentProduct": {
                  "href": "/mdr/sdtmig/3-4",
                  "title": "Study Data Tabulation Model Implementation Guide: Human Clinical Trials",
                  "type": "Implementation Guide"
                },
                "priorVersion": {
                  "href": "/mdr/sdtmig/3-3/datasets/AG/variables/VISIT",
                  "title": "Visit Name",
                  "type": "SDTM Dataset Variable"
                },
                "rootItem": {
                  "href": "/mdr/root/sdtmig/datasets/AG/variables/VISIT",
                  "title": "Version-agnostic anchor resource for SDTMIG variable AG.VISIT",
                  "type": "Root Data Element"
                },
                "self": {
                  "href": "/mdr/sdtmig/3-4/datasets/AG/variables/VISIT",
                  "title": "Visit Name",
                  "type": "SDTM Dataset Variable"
                }
              },
              "core": "Perm",
              "description": "1. Protocol-defined description of clinical encounter. \\n 2. May be used in addition to VISITNUM and/or VISITDY.",
              "label": "Visit Name",
              "name": "VISIT",
              "ordinal": "27",
              "role": "Timing",
              "simpleDatatype": "Char"
            },
            {
              "_links": {
                "modelClassVariable": {
                  "href": "/mdr/sdtm/2-0/classes/GeneralObservations/variables/VISITDY",
                  "title": "Planned Study Day of Visit",
                  "type": "SDTM Class Variable"
                },
                "parentDataset": {
                  "href": "/mdr/sdtmig/3-4/datasets/AG",
                  "title": "Procedure Agents",
                  "type": "SDTM Dataset"
                },
                "parentProduct": {
                  "href": "/mdr/sdtmig/3-4",
                  "title": "Study Data Tabulation Model Implementation Guide: Human Clinical Trials",
                  "type": "Implementation Guide"
                },
                "priorVersion": {
                  "href": "/mdr/sdtmig/3-3/datasets/AG/variables/VISITDY",
                  "title": "Planned Study Day of Visit",
                  "type": "SDTM Dataset Variable"
                },
                "rootItem": {
                  "href": "/mdr/root/sdtmig/datasets/AG/variables/VISITDY",
                  "title": "Version-agnostic anchor resource for SDTMIG variable AG.VISITDY",
                  "type": "Root Data Element"
                },
                "self": {
                  "href": "/mdr/sdtmig/3-4/datasets/AG/variables/VISITDY",
                  "title": "Planned Study Day of Visit",
                  "type": "SDTM Dataset Variable"
                }
              },
              "core": "Perm",
              "description": "Planned study day of the visit based upon RFSTDTC in Demographics.",
              "label": "Planned Study Day of Visit",
              "name": "VISITDY",
              "ordinal": "28",
              "role": "Timing",
              "simpleDatatype": "Num"
            },
            {
              "_links": {
                "modelClassVariable": {
                  "href": "/mdr/sdtm/2-0/classes/GeneralObservations/variables/TAETORD",
                  "title": "Planned Order of Element Within Arm",
                  "type": "SDTM Class Variable"
                },
                "parentDataset": {
                  "href": "/mdr/sdtmig/3-4/datasets/AG",
                  "title": "Procedure Agents",
                  "type": "SDTM Dataset"
                },
                "parentProduct": {
                  "href": "/mdr/sdtmig/3-4",
                  "title": "Study Data Tabulation Model Implementation Guide: Human Clinical Trials",
                  "type": "Implementation Guide"
                },
                "priorVersion": {
                  "href": "/mdr/sdtmig/3-3/datasets/AG/variables/TAETORD",
                  "title": "Planned Order of Element within Arm",
                  "type": "SDTM Dataset Variable"
                },
                "rootItem": {
                  "href": "/mdr/root/sdtmig/datasets/AG/variables/TAETORD",
                  "title": "Version-agnostic anchor resource for SDTMIG variable AG.TAETORD",
                  "type": "Root Data Element"
                },
                "self": {
                  "href": "/mdr/sdtmig/3-4/datasets/AG/variables/TAETORD",
                  "title": "Planned Order of Element within Arm",
                  "type": "SDTM Dataset Variable"
                }
              },
              "core": "Perm",
              "description": "Number that gives the planned order of the element within the arm for the element in which the agent administration started.",
              "label": "Planned Order of Element within Arm",
              "name": "TAETORD",
              "ordinal": "29",
              "role": "Timing",
              "simpleDatatype": "Num"
            },
            {
              "_links": {
                "codelist": [
                  {
                    "href": "/mdr/root/ct/sdtmct/codelists/C99079",
                    "title": "Version-agnostic anchor resource for codelist C99079",
                    "type": "Root Value Domain"
                  }
                ],
                "modelClassVariable": {
                  "href": "/mdr/sdtm/2-0/classes/GeneralObservations/variables/EPOCH",
                  "title": "Epoch",
                  "type": "SDTM Class Variable"
                },
                "parentDataset": {
                  "href": "/mdr/sdtmig/3-4/datasets/AG",
                  "title": "Procedure Agents",
                  "type": "SDTM Dataset"
                },
                "parentProduct": {
                  "href": "/mdr/sdtmig/3-4",
                  "title": "Study Data Tabulation Model Implementation Guide: Human Clinical Trials",
                  "type": "Implementation Guide"
                },
                "priorVersion": {
                  "href": "/mdr/sdtmig/3-3/datasets/AG/variables/EPOCH",
                  "title": "Epoch",
                  "type": "SDTM Dataset Variable"
                },
                "rootItem": {
                  "href": "/mdr/root/sdtmig/datasets/AG/variables/EPOCH",
                  "title": "Version-agnostic anchor resource for SDTMIG variable AG.EPOCH",
                  "type": "Root Data Element"
                },
                "self": {
                  "href": "/mdr/sdtmig/3-4/datasets/AG/variables/EPOCH",
                  "title": "Epoch",
                  "type": "SDTM Dataset Variable"
                }
              },
              "core": "Perm",
              "description": "Epoch associated with the start date/time of the agent administration started.",
              "label": "Epoch",
              "name": "EPOCH",
              "ordinal": "30",
              "role": "Timing",
              "simpleDatatype": "Char"
            },
            {
              "_links": {
                "modelClassVariable": {
                  "href": "/mdr/sdtm/2-0/classes/GeneralObservations/variables/--STDTC",
                  "title": "Start Date/Time of Observation",
                  "type": "SDTM Class Variable"
                },
                "parentDataset": {
                  "href": "/mdr/sdtmig/3-4/datasets/AG",
                  "title": "Procedure Agents",
                  "type": "SDTM Dataset"
                },
                "parentProduct": {
                  "href": "/mdr/sdtmig/3-4",
                  "title": "Study Data Tabulation Model Implementation Guide: Human Clinical Trials",
                  "type": "Implementation Guide"
                },
                "priorVersion": {
                  "href": "/mdr/sdtmig/3-3/datasets/AG/variables/AGSTDTC",
                  "title": "Start Date/Time of Agent",
                  "type": "SDTM Dataset Variable"
                },
                "rootItem": {
                  "href": "/mdr/root/sdtmig/datasets/AG/variables/AGSTDTC",
                  "title": "Version-agnostic anchor resource for SDTMIG variable AG.AGSTDTC",
                  "type": "Root Data Element"
                },
                "self": {
                  "href": "/mdr/sdtmig/3-4/datasets/AG/variables/AGSTDTC",
                  "title": "Start Date/Time of Agent",
                  "type": "SDTM Dataset Variable"
                }
              },
              "core": "Perm",
              "describedValueDomain": "ISO 8601 datetime or interval",
              "description": "The date/time when administration of the treatment indicated by AGTRT and the dosing variables began.",
              "label": "Start Date/Time of Agent",
              "name": "AGSTDTC",
              "ordinal": "31",
              "role": "Timing",
              "simpleDatatype": "Char"
            },
            {
              "_links": {
                "modelClassVariable": {
                  "href": "/mdr/sdtm/2-0/classes/GeneralObservations/variables/--ENDTC",
                  "title": "End Date/Time of Observation",
                  "type": "SDTM Class Variable"
                },
                "parentDataset": {
                  "href": "/mdr/sdtmig/3-4/datasets/AG",
                  "title": "Procedure Agents",
                  "type": "SDTM Dataset"
                },
                "parentProduct": {
                  "href": "/mdr/sdtmig/3-4",
                  "title": "Study Data Tabulation Model Implementation Guide: Human Clinical Trials",
                  "type": "Implementation Guide"
                },
                "priorVersion": {
                  "href": "/mdr/sdtmig/3-3/datasets/AG/variables/AGENDTC",
                  "title": "End Date/Time of Agent",
                  "type": "SDTM Dataset Variable"
                },
                "rootItem": {
                  "href": "/mdr/root/sdtmig/datasets/AG/variables/AGENDTC",
                  "title": "Version-agnostic anchor resource for SDTMIG variable AG.AGENDTC",
                  "type": "Root Data Element"
                },
                "self": {
                  "href": "/mdr/sdtmig/3-4/datasets/AG/variables/AGENDTC",
                  "title": "End Date/Time of Agent",
                  "type": "SDTM Dataset Variable"
                }
              },
              "core": "Perm",
              "describedValueDomain": "ISO 8601 datetime or interval",
              "description": "The date/time when administration of the treatment indicated by AGTRT and the dosing variables ended.",
              "label": "End Date/Time of Agent",
              "name": "AGENDTC",
              "ordinal": "32",
              "role": "Timing",
              "simpleDatatype": "Char"
            },
            {
              "_links": {
                "modelClassVariable": {
                  "href": "/mdr/sdtm/2-0/classes/GeneralObservations/variables/--STDY",
                  "title": "Study Day of Start of Observation",
                  "type": "SDTM Class Variable"
                },
                "parentDataset": {
                  "href": "/mdr/sdtmig/3-4/datasets/AG",
                  "title": "Procedure Agents",
                  "type": "SDTM Dataset"
                },
                "parentProduct": {
                  "href": "/mdr/sdtmig/3-4",
                  "title": "Study Data Tabulation Model Implementation Guide: Human Clinical Trials",
                  "type": "Implementation Guide"
                },
                "priorVersion": {
                  "href": "/mdr/sdtmig/3-3/datasets/AG/variables/AGSTDY",
                  "title": "Study Day of Start of Agent",
                  "type": "SDTM Dataset Variable"
                },
                "rootItem": {
                  "href": "/mdr/root/sdtmig/datasets/AG/variables/AGSTDY",
                  "title": "Version-agnostic anchor resource for SDTMIG variable AG.AGSTDY",
                  "type": "Root Data Element"
                },
                "self": {
                  "href": "/mdr/sdtmig/3-4/datasets/AG/variables/AGSTDY",
                  "title": "Study Day of Start of Agent",
                  "type": "SDTM Dataset Variable"
                }
              },
              "core": "Perm",
              "description": "Study day of start of agent relative to the sponsor-defined RFSTDTC.",
              "label": "Study Day of Start of Agent",
              "name": "AGSTDY",
              "ordinal": "33",
              "role": "Timing",
              "simpleDatatype": "Num"
            },
            {
              "_links": {
                "modelClassVariable": {
                  "href": "/mdr/sdtm/2-0/classes/GeneralObservations/variables/--ENDY",
                  "title": "Study Day of End of Observation",
                  "type": "SDTM Class Variable"
                },
                "parentDataset": {
                  "href": "/mdr/sdtmig/3-4/datasets/AG",
                  "title": "Procedure Agents",
                  "type": "SDTM Dataset"
                },
                "parentProduct": {
                  "href": "/mdr/sdtmig/3-4",
                  "title": "Study Data Tabulation Model Implementation Guide: Human Clinical Trials",
                  "type": "Implementation Guide"
                },
                "priorVersion": {
                  "href": "/mdr/sdtmig/3-3/datasets/AG/variables/AGENDY",
                  "title": "Study Day of End of Agent",
                  "type": "SDTM Dataset Variable"
                },
                "rootItem": {
                  "href": "/mdr/root/sdtmig/datasets/AG/variables/AGENDY",
                  "title": "Version-agnostic anchor resource for SDTMIG variable AG.AGENDY",
                  "type": "Root Data Element"
                },
                "self": {
                  "href": "/mdr/sdtmig/3-4/datasets/AG/variables/AGENDY",
                  "title": "Study Day of End of Agent",
                  "type": "SDTM Dataset Variable"
                }
              },
              "core": "Perm",
              "description": "Study day of end of agent relative to the sponsor-defined RFSTDTC.",
              "label": "Study Day of End of Agent",
              "name": "AGENDY",
              "ordinal": "34",
              "role": "Timing",
              "simpleDatatype": "Num"
            },
            {
              "_links": {
                "modelClassVariable": {
                  "href": "/mdr/sdtm/2-0/classes/GeneralObservations/variables/--DUR",
                  "title": "Collected Duration",
                  "type": "SDTM Class Variable"
                },
                "parentDataset": {
                  "href": "/mdr/sdtmig/3-4/datasets/AG",
                  "title": "Procedure Agents",
                  "type": "SDTM Dataset"
                },
                "parentProduct": {
                  "href": "/mdr/sdtmig/3-4",
                  "title": "Study Data Tabulation Model Implementation Guide: Human Clinical Trials",
                  "type": "Implementation Guide"
                },
                "priorVersion": {
                  "href": "/mdr/sdtmig/3-3/datasets/AG/variables/AGDUR",
                  "title": "Duration of Agent",
                  "type": "SDTM Dataset Variable"
                },
                "rootItem": {
                  "href": "/mdr/root/sdtmig/datasets/AG/variables/AGDUR",
                  "title": "Version-agnostic anchor resource for SDTMIG variable AG.AGDUR",
                  "type": "Root Data Element"
                },
                "self": {
                  "href": "/mdr/sdtmig/3-4/datasets/AG/variables/AGDUR",
                  "title": "Duration of Agent",
                  "type": "SDTM Dataset Variable"
                }
              },
              "core": "Perm",
              "describedValueDomain": "ISO 8601 duration",
              "description": "Collected duration for an agent episode. Used only if collected on the CRF and not derived from start and end date/times.",
              "label": "Duration of Agent",
              "name": "AGDUR",
              "ordinal": "35",
              "role": "Timing",
              "simpleDatatype": "Char"
            },
            {
              "_links": {
                "codelist": [
                  {
                    "href": "/mdr/root/ct/sdtmct/codelists/C66728",
                    "title": "Version-agnostic anchor resource for codelist C66728",
                    "type": "Root Value Domain"
                  }
                ],
                "modelClassVariable": {
                  "href": "/mdr/sdtm/2-0/classes/GeneralObservations/variables/--STRF",
                  "title": "Start Relative to Reference Period",
                  "type": "SDTM Class Variable"
                },
                "parentDataset": {
                  "href": "/mdr/sdtmig/3-4/datasets/AG",
                  "title": "Procedure Agents",
                  "type": "SDTM Dataset"
                },
                "parentProduct": {
                  "href": "/mdr/sdtmig/3-4",
                  "title": "Study Data Tabulation Model Implementation Guide: Human Clinical Trials",
                  "type": "Implementation Guide"
                },
                "priorVersion": {
                  "href": "/mdr/sdtmig/3-3/datasets/AG/variables/AGSTRF",
                  "title": "Start Relative to Reference Period",
                  "type": "SDTM Dataset Variable"
                },
                "rootItem": {
                  "href": "/mdr/root/sdtmig/datasets/AG/variables/AGSTRF",
                  "title": "Version-agnostic anchor resource for SDTMIG variable AG.AGSTRF",
                  "type": "Root Data Element"
                },
                "self": {
                  "href": "/mdr/sdtmig/3-4/datasets/AG/variables/AGSTRF",
                  "title": "Start Relative to Reference Period",
                  "type": "SDTM Dataset Variable"
                }
              },
              "core": "Perm",
              "description": "Describes the start of the agent relative to sponsor-defined reference period. The sponsor-defined reference period is a continuous period of time defined by a discrete starting point and a discrete ending point (represented by RFSTDTC and RFENDTC in Demographics). If information such as \"PRIOR\", \"ONGOING\", or \"CONTINUING\" was collected, this information may be translated into AGSTRF. \\n Not all values of the codelist are allowable for this variable. See Section 4.4.7, Use of Relative Timing Variables.",
              "label": "Start Relative to Reference Period",
              "name": "AGSTRF",
              "ordinal": "36",
              "role": "Timing",
              "simpleDatatype": "Char"
            },
            {
              "_links": {
                "codelist": [
                  {
                    "href": "/mdr/root/ct/sdtmct/codelists/C66728",
                    "title": "Version-agnostic anchor resource for codelist C66728",
                    "type": "Root Value Domain"
                  }
                ],
                "modelClassVariable": {
                  "href": "/mdr/sdtm/2-0/classes/GeneralObservations/variables/--ENRF",
                  "title": "End Relative to Reference Period",
                  "type": "SDTM Class Variable"
                },
                "parentDataset": {
                  "href": "/mdr/sdtmig/3-4/datasets/AG",
                  "title": "Procedure Agents",
                  "type": "SDTM Dataset"
                },
                "parentProduct": {
                  "href": "/mdr/sdtmig/3-4",
                  "title": "Study Data Tabulation Model Implementation Guide: Human Clinical Trials",
                  "type": "Implementation Guide"
                },
                "priorVersion": {
                  "href": "/mdr/sdtmig/3-3/datasets/AG/variables/AGENRF",
                  "title": "End Relative to Reference Period",
                  "type": "SDTM Dataset Variable"
                },
                "rootItem": {
                  "href": "/mdr/root/sdtmig/datasets/AG/variables/AGENRF",
                  "title": "Version-agnostic anchor resource for SDTMIG variable AG.AGENRF",
                  "type": "Root Data Element"
                },
                "self": {
                  "href": "/mdr/sdtmig/3-4/datasets/AG/variables/AGENRF",
                  "title": "End Relative to Reference Period",
                  "type": "SDTM Dataset Variable"
                }
              },
              "core": "Perm",
              "description": "Describes the end of the agent relative to the sponsor-defined reference period. The sponsor-defined reference period is a continuous period of time defined by a discrete starting point and a discrete ending point (represented by RFSTDTC and RFENDTC in Demographics). If information such as \"PRIOR\", \"ONGOING\", or \"CONTINUING\" was collected, this information may be translated into AGENRF. \\n Not all values of the codelist are allowable for this variable. See Section 4.4.7, Use of Relative Timing Variables.",
              "label": "End Relative to Reference Period",
              "name": "AGENRF",
              "ordinal": "37",
              "role": "Timing",
              "simpleDatatype": "Char"
            },
            {
              "_links": {
                "codelist": [
                  {
                    "href": "/mdr/root/ct/sdtmct/codelists/C66728",
                    "title": "Version-agnostic anchor resource for codelist C66728",
                    "type": "Root Value Domain"
                  }
                ],
                "modelClassVariable": {
                  "href": "/mdr/sdtm/2-0/classes/GeneralObservations/variables/--STRTPT",
                  "title": "Start Relative to Reference Time Point",
                  "type": "SDTM Class Variable"
                },
                "parentDataset": {
                  "href": "/mdr/sdtmig/3-4/datasets/AG",
                  "title": "Procedure Agents",
                  "type": "SDTM Dataset"
                },
                "parentProduct": {
                  "href": "/mdr/sdtmig/3-4",
                  "title": "Study Data Tabulation Model Implementation Guide: Human Clinical Trials",
                  "type": "Implementation Guide"
                },
                "priorVersion": {
                  "href": "/mdr/sdtmig/3-3/datasets/AG/variables/AGSTRTPT",
                  "title": "Start Relative to Reference Time Point",
                  "type": "SDTM Dataset Variable"
                },
                "rootItem": {
                  "href": "/mdr/root/sdtmig/datasets/AG/variables/AGSTRTPT",
                  "title": "Version-agnostic anchor resource for SDTMIG variable AG.AGSTRTPT",
                  "type": "Root Data Element"
                },
                "self": {
                  "href": "/mdr/sdtmig/3-4/datasets/AG/variables/AGSTRTPT",
                  "title": "Start Relative to Reference Time Point",
                  "type": "SDTM Dataset Variable"
                }
              },
              "core": "Perm",
              "description": "Identifies the start of the agent as being before or after the sponsor-defined reference time point defined by variable AGSTTPT. \\n Not all values of the codelist are allowable for this variable. See Section 4.4.7, Use of Relative Timing Variables.",
              "label": "Start Relative to Reference Time Point",
              "name": "AGSTRTPT",
              "ordinal": "38",
              "role": "Timing",
              "simpleDatatype": "Char"
            },
            {
              "_links": {
                "modelClassVariable": {
                  "href": "/mdr/sdtm/2-0/classes/GeneralObservations/variables/--STTPT",
                  "title": "Start Reference Time Point",
                  "type": "SDTM Class Variable"
                },
                "parentDataset": {
                  "href": "/mdr/sdtmig/3-4/datasets/AG",
                  "title": "Procedure Agents",
                  "type": "SDTM Dataset"
                },
                "parentProduct": {
                  "href": "/mdr/sdtmig/3-4",
                  "title": "Study Data Tabulation Model Implementation Guide: Human Clinical Trials",
                  "type": "Implementation Guide"
                },
                "priorVersion": {
                  "href": "/mdr/sdtmig/3-3/datasets/AG/variables/AGSTTPT",
                  "title": "Start Reference Time Point",
                  "type": "SDTM Dataset Variable"
                },
                "rootItem": {
                  "href": "/mdr/root/sdtmig/datasets/AG/variables/AGSTTPT",
                  "title": "Version-agnostic anchor resource for SDTMIG variable AG.AGSTTPT",
                  "type": "Root Data Element"
                },
                "self": {
                  "href": "/mdr/sdtmig/3-4/datasets/AG/variables/AGSTTPT",
                  "title": "Start Reference Time Point",
                  "type": "SDTM Dataset Variable"
                }
              },
              "core": "Perm",
              "description": "Description or date/time in ISO 8601 character format of the reference point referred to by AGSTRTPT. Examples: \"2003-12-15\", \"VISIT 1\".",
              "label": "Start Reference Time Point",
              "name": "AGSTTPT",
              "ordinal": "39",
              "role": "Timing",
              "simpleDatatype": "Char"
            },
            {
              "_links": {
                "codelist": [
                  {
                    "href": "/mdr/root/ct/sdtmct/codelists/C66728",
                    "title": "Version-agnostic anchor resource for codelist C66728",
                    "type": "Root Value Domain"
                  }
                ],
                "modelClassVariable": {
                  "href": "/mdr/sdtm/2-0/classes/GeneralObservations/variables/--ENRTPT",
                  "title": "End Relative to Reference Time Point",
                  "type": "SDTM Class Variable"
                },
                "parentDataset": {
                  "href": "/mdr/sdtmig/3-4/datasets/AG",
                  "title": "Procedure Agents",
                  "type": "SDTM Dataset"
                },
                "parentProduct": {
                  "href": "/mdr/sdtmig/3-4",
                  "title": "Study Data Tabulation Model Implementation Guide: Human Clinical Trials",
                  "type": "Implementation Guide"
                },
                "priorVersion": {
                  "href": "/mdr/sdtmig/3-3/datasets/AG/variables/AGENRTPT",
                  "title": "End Relative to Reference Time Point",
                  "type": "SDTM Dataset Variable"
                },
                "rootItem": {
                  "href": "/mdr/root/sdtmig/datasets/AG/variables/AGENRTPT",
                  "title": "Version-agnostic anchor resource for SDTMIG variable AG.AGENRTPT",
                  "type": "Root Data Element"
                },
                "self": {
                  "href": "/mdr/sdtmig/3-4/datasets/AG/variables/AGENRTPT",
                  "title": "End Relative to Reference Time Point",
                  "type": "SDTM Dataset Variable"
                }
              },
              "core": "Perm",
              "description": "Identifies the end of the agent as being before or after the reference time point defined by variable AGENTPT. Identifies the end of the agent as being before or after the sponsor-defined reference time point defined by variable AGENTPT. \\n Not all values of the codelist are allowable for this variable. See Section 4.4.7, Use of Relative Timing Variables.",
              "label": "End Relative to Reference Time Point",
              "name": "AGENRTPT",
              "ordinal": "40",
              "role": "Timing",
              "simpleDatatype": "Char"
            },
            {
              "_links": {
                "modelClassVariable": {
                  "href": "/mdr/sdtm/2-0/classes/GeneralObservations/variables/--ENTPT",
                  "title": "End Reference Time Point",
                  "type": "SDTM Class Variable"
                },
                "parentDataset": {
                  "href": "/mdr/sdtmig/3-4/datasets/AG",
                  "title": "Procedure Agents",
                  "type": "SDTM Dataset"
                },
                "parentProduct": {
                  "href": "/mdr/sdtmig/3-4",
                  "title": "Study Data Tabulation Model Implementation Guide: Human Clinical Trials",
                  "type": "Implementation Guide"
                },
                "priorVersion": {
                  "href": "/mdr/sdtmig/3-3/datasets/AG/variables/AGENTPT",
                  "title": "End Reference Time Point",
                  "type": "SDTM Dataset Variable"
                },
                "rootItem": {
                  "href": "/mdr/root/sdtmig/datasets/AG/variables/AGENTPT",
                  "title": "Version-agnostic anchor resource for SDTMIG variable AG.AGENTPT",
                  "type": "Root Data Element"
                },
                "self": {
                  "href": "/mdr/sdtmig/3-4/datasets/AG/variables/AGENTPT",
                  "title": "End Reference Time Point",
                  "type": "SDTM Dataset Variable"
                }
              },
              "core": "Perm",
              "description": "Description or date/time in ISO 8601 character format of the reference point referred to by AGENRTPT. Examples: \"2003-12-25\", \"VISIT 2\".",
              "label": "End Reference Time Point",
              "name": "AGENTPT",
              "ordinal": "41",
              "role": "Timing",
              "simpleDatatype": "Char"
            }
          ],
          "description": "An interventions domain that contains the agents administered to the subject as part of a procedure or assessment, as opposed to drugs, medications and therapies administered with therapeutic intent.",
          "label": "Procedure Agents",
          "name": "AG",
          "ordinal": "2"
        },
        {
          "_links": {
            "parentClass": {
              "href": "/mdr/sdtmig/3-4/classes/Interventions",
              "title": "Interventions",
              "type": "Class"
            },
            "parentProduct": {
              "href": "/mdr/sdtmig/3-4",
              "title": "Study Data Tabulation Model Implementation Guide: Human Clinical Trials",
              "type": "Implementation Guide"
            },
            "priorVersion": {
              "href": "/mdr/sdtmig/3-3/datasets/CM",
              "title": "Concomitant/Prior Medications",
              "type": "SDTM Dataset"
            },
            "self": {
              "href": "/mdr/sdtmig/3-4/datasets/CM",
              "title": "Concomitant/Prior Medications",
              "type": "SDTM Dataset"
            }
          },
          "datasetStructure": "One record per recorded intervention occurrence or constant-dosing interval per subject",
          "datasetVariables": [
            {
              "_links": {
                "modelClassVariable": {
                  "href": "/mdr/sdtm/2-0/classes/GeneralObservations/variables/STUDYID",
                  "title": "Study Identifier",
                  "type": "SDTM Class Variable"
                },
                "parentDataset": {
                  "href": "/mdr/sdtmig/3-4/datasets/CM",
                  "title": "Concomitant/Prior Medications",
                  "type": "SDTM Dataset"
                },
                "parentProduct": {
                  "href": "/mdr/sdtmig/3-4",
                  "title": "Study Data Tabulation Model Implementation Guide: Human Clinical Trials",
                  "type": "Implementation Guide"
                },
                "priorVersion": {
                  "href": "/mdr/sdtmig/3-3/datasets/CM/variables/STUDYID",
                  "title": "Study Identifier",
                  "type": "SDTM Dataset Variable"
                },
                "rootItem": {
                  "href": "/mdr/root/sdtmig/datasets/CM/variables/STUDYID",
                  "title": "Version-agnostic anchor resource for SDTMIG variable CM.STUDYID",
                  "type": "Root Data Element"
                },
                "self": {
                  "href": "/mdr/sdtmig/3-4/datasets/CM/variables/STUDYID",
                  "title": "Study Identifier",
                  "type": "SDTM Dataset Variable"
                }
              },
              "core": "Req",
              "description": "Unique identifier for a study.",
              "label": "Study Identifier",
              "name": "STUDYID",
              "ordinal": "1",
              "role": "Identifier",
              "simpleDatatype": "Char"
            },
            {
              "_links": {
                "modelClassVariable": {
                  "href": "/mdr/sdtm/2-0/classes/GeneralObservations/variables/DOMAIN",
                  "title": "Domain Abbreviation",
                  "type": "SDTM Class Variable"
                },
                "parentDataset": {
                  "href": "/mdr/sdtmig/3-4/datasets/CM",
                  "title": "Concomitant/Prior Medications",
                  "type": "SDTM Dataset"
                },
                "parentProduct": {
                  "href": "/mdr/sdtmig/3-4",
                  "title": "Study Data Tabulation Model Implementation Guide: Human Clinical Trials",
                  "type": "Implementation Guide"
                },
                "priorVersion": {
                  "href": "/mdr/sdtmig/3-3/datasets/CM/variables/DOMAIN",
                  "title": "Domain Abbreviation",
                  "type": "SDTM Dataset Variable"
                },
                "rootItem": {
                  "href": "/mdr/root/sdtmig/datasets/CM/variables/DOMAIN",
                  "title": "Version-agnostic anchor resource for SDTMIG variable CM.DOMAIN",
                  "type": "Root Data Element"
                },
                "self": {
                  "href": "/mdr/sdtmig/3-4/datasets/CM/variables/DOMAIN",
                  "title": "Domain Abbreviation",
                  "type": "SDTM Dataset Variable"
                }
              },
              "core": "Req",
              "description": "Two-character abbreviation for the domain.",
              "label": "Domain Abbreviation",
              "name": "DOMAIN",
              "ordinal": "2",
              "role": "Identifier",
              "simpleDatatype": "Char",
              "valueList": [
                "CM"
              ]
            },
            {
              "_links": {
                "modelClassVariable": {
                  "href": "/mdr/sdtm/2-0/classes/GeneralObservations/variables/USUBJID",
                  "title": "Unique Subject Identifier",
                  "type": "SDTM Class Variable"
                },
                "parentDataset": {
                  "href": "/mdr/sdtmig/3-4/datasets/CM",
                  "title": "Concomitant/Prior Medications",
                  "type": "SDTM Dataset"
                },
                "parentProduct": {
                  "href": "/mdr/sdtmig/3-4",
                  "title": "Study Data Tabulation Model Implementation Guide: Human Clinical Trials",
                  "type": "Implementation Guide"
                },
                "priorVersion": {
                  "href": "/mdr/sdtmig/3-3/datasets/CM/variables/USUBJID",
                  "title": "Unique Subject Identifier",
                  "type": "SDTM Dataset Variable"
                },
                "rootItem": {
                  "href": "/mdr/root/sdtmig/datasets/CM/variables/USUBJID",
                  "title": "Version-agnostic anchor resource for SDTMIG variable CM.USUBJID",
                  "type": "Root Data Element"
                },
                "self": {
                  "href": "/mdr/sdtmig/3-4/datasets/CM/variables/USUBJID",
                  "title": "Unique Subject Identifier",
                  "type": "SDTM Dataset Variable"
                }
              },
              "core": "Req",
              "description": "Identifier used to uniquely identify a subject across all studies for all applications or submissions involving the product.",
              "label": "Unique Subject Identifier",
              "name": "USUBJID",
              "ordinal": "3",
              "role": "Identifier",
              "simpleDatatype": "Char"
            },
            {
              "_links": {
                "modelClassVariable": {
                  "href": "/mdr/sdtm/2-0/classes/GeneralObservations/variables/--SEQ",
                  "title": "Sequence Number",
                  "type": "SDTM Class Variable"
                },
                "parentDataset": {
                  "href": "/mdr/sdtmig/3-4/datasets/CM",
                  "title": "Concomitant/Prior Medications",
                  "type": "SDTM Dataset"
                },
                "parentProduct": {
                  "href": "/mdr/sdtmig/3-4",
                  "title": "Study Data Tabulation Model Implementation Guide: Human Clinical Trials",
                  "type": "Implementation Guide"
                },
                "priorVersion": {
                  "href": "/mdr/sdtmig/3-3/datasets/CM/variables/CMSEQ",
                  "title": "Sequence Number",
                  "type": "SDTM Dataset Variable"
                },
                "rootItem": {
                  "href": "/mdr/root/sdtmig/datasets/CM/variables/CMSEQ",
                  "title": "Version-agnostic anchor resource for SDTMIG variable CM.CMSEQ",
                  "type": "Root Data Element"
                },
                "self": {
                  "href": "/mdr/sdtmig/3-4/datasets/CM/variables/CMSEQ",
                  "title": "Sequence Number",
                  "type": "SDTM Dataset Variable"
                }
              },
              "core": "Req",
              "description": "Sequence number to ensure uniqueness of subject records within a domain. May be any valid number.",
              "label": "Sequence Number",
              "name": "CMSEQ",
              "ordinal": "4",
              "role": "Identifier",
              "simpleDatatype": "Num"
            },
            {
              "_links": {
                "modelClassVariable": {
                  "href": "/mdr/sdtm/2-0/classes/GeneralObservations/variables/--GRPID",
                  "title": "Group ID",
                  "type": "SDTM Class Variable"
                },
                "parentDataset": {
                  "href": "/mdr/sdtmig/3-4/datasets/CM",
                  "title": "Concomitant/Prior Medications",
                  "type": "SDTM Dataset"
                },
                "parentProduct": {
                  "href": "/mdr/sdtmig/3-4",
                  "title": "Study Data Tabulation Model Implementation Guide: Human Clinical Trials",
                  "type": "Implementation Guide"
                },
                "priorVersion": {
                  "href": "/mdr/sdtmig/3-3/datasets/CM/variables/CMGRPID",
                  "title": "Group ID",
                  "type": "SDTM Dataset Variable"
                },
                "rootItem": {
                  "href": "/mdr/root/sdtmig/datasets/CM/variables/CMGRPID",
                  "title": "Version-agnostic anchor resource for SDTMIG variable CM.CMGRPID",
                  "type": "Root Data Element"
                },
                "self": {
                  "href": "/mdr/sdtmig/3-4/datasets/CM/variables/CMGRPID",
                  "title": "Group ID",
                  "type": "SDTM Dataset Variable"
                }
              },
              "core": "Perm",
              "description": "Used to tie together a block of related records in a single domain for a subject.",
              "label": "Group ID",
              "name": "CMGRPID",
              "ordinal": "5",
              "role": "Identifier",
              "simpleDatatype": "Char"
            },
            {
              "_links": {
                "modelClassVariable": {
                  "href": "/mdr/sdtm/2-0/classes/GeneralObservations/variables/--SPID",
                  "title": "Sponsor-Defined Identifier",
                  "type": "SDTM Class Variable"
                },
                "parentDataset": {
                  "href": "/mdr/sdtmig/3-4/datasets/CM",
                  "title": "Concomitant/Prior Medications",
                  "type": "SDTM Dataset"
                },
                "parentProduct": {
                  "href": "/mdr/sdtmig/3-4",
                  "title": "Study Data Tabulation Model Implementation Guide: Human Clinical Trials",
                  "type": "Implementation Guide"
                },
                "priorVersion": {
                  "href": "/mdr/sdtmig/3-3/datasets/CM/variables/CMSPID",
                  "title": "Sponsor-Defined Identifier",
                  "type": "SDTM Dataset Variable"
                },
                "rootItem": {
                  "href": "/mdr/root/sdtmig/datasets/CM/variables/CMSPID",
                  "title": "Version-agnostic anchor resource for SDTMIG variable CM.CMSPID",
                  "type": "Root Data Element"
                },
                "self": {
                  "href": "/mdr/sdtmig/3-4/datasets/CM/variables/CMSPID",
                  "title": "Sponsor-Defined Identifier",
                  "type": "SDTM Dataset Variable"
                }
              },
              "core": "Perm",
              "description": "Sponsor-defined reference number. Example: a number preprinted on the CRF as an explicit line identifier or record identifier defined in the sponsor's operational database. Example: line number on a concomitant medication page.",
              "label": "Sponsor-Defined Identifier",
              "name": "CMSPID",
              "ordinal": "6",
              "role": "Identifier",
              "simpleDatatype": "Char"
            },
            {
              "_links": {
                "modelClassVariable": {
                  "href": "/mdr/sdtm/2-0/classes/Interventions/variables/--TRT",
                  "title": "Name of Treatment",
                  "type": "SDTM Class Variable"
                },
                "parentDataset": {
                  "href": "/mdr/sdtmig/3-4/datasets/CM",
                  "title": "Concomitant/Prior Medications",
                  "type": "SDTM Dataset"
                },
                "parentProduct": {
                  "href": "/mdr/sdtmig/3-4",
                  "title": "Study Data Tabulation Model Implementation Guide: Human Clinical Trials",
                  "type": "Implementation Guide"
                },
                "priorVersion": {
                  "href": "/mdr/sdtmig/3-3/datasets/CM/variables/CMTRT",
                  "title": "Reported Name of Drug, Med, or Therapy",
                  "type": "SDTM Dataset Variable"
                },
                "rootItem": {
                  "href": "/mdr/root/sdtmig/datasets/CM/variables/CMTRT",
                  "title": "Version-agnostic anchor resource for SDTMIG variable CM.CMTRT",
                  "type": "Root Data Element"
                },
                "self": {
                  "href": "/mdr/sdtmig/3-4/datasets/CM/variables/CMTRT",
                  "title": "Reported Name of Drug, Med, or Therapy",
                  "type": "SDTM Dataset Variable"
                }
              },
              "core": "Req",
              "description": "Verbatim medication name that is either preprinted or collected on a CRF.",
              "label": "Reported Name of Drug, Med, or Therapy",
              "name": "CMTRT",
              "ordinal": "7",
              "role": "Topic",
              "simpleDatatype": "Char"
            },
            {
              "_links": {
                "modelClassVariable": {
                  "href": "/mdr/sdtm/2-0/classes/Interventions/variables/--MODIFY",
                  "title": "Modified Treatment Name",
                  "type": "SDTM Class Variable"
                },
                "parentDataset": {
                  "href": "/mdr/sdtmig/3-4/datasets/CM",
                  "title": "Concomitant/Prior Medications",
                  "type": "SDTM Dataset"
                },
                "parentProduct": {
                  "href": "/mdr/sdtmig/3-4",
                  "title": "Study Data Tabulation Model Implementation Guide: Human Clinical Trials",
                  "type": "Implementation Guide"
                },
                "priorVersion": {
                  "href": "/mdr/sdtmig/3-3/datasets/CM/variables/CMMODIFY",
                  "title": "Modified Reported Name",
                  "type": "SDTM Dataset Variable"
                },
                "rootItem": {
                  "href": "/mdr/root/sdtmig/datasets/CM/variables/CMMODIFY",
                  "title": "Version-agnostic anchor resource for SDTMIG variable CM.CMMODIFY",
                  "type": "Root Data Element"
                },
                "self": {
                  "href": "/mdr/sdtmig/3-4/datasets/CM/variables/CMMODIFY",
                  "title": "Modified Reported Name",
                  "type": "SDTM Dataset Variable"
                }
              },
              "core": "Perm",
              "description": "If CMTRT is modified to facilitate coding, then CMMODIFY will contain the modified text.",
              "label": "Modified Reported Name",
              "name": "CMMODIFY",
              "ordinal": "8",
              "role": "Synonym Qualifier",
              "simpleDatatype": "Char"
            },
            {
              "_links": {
                "modelClassVariable": {
                  "href": "/mdr/sdtm/2-0/classes/Interventions/variables/--DECOD",
                  "title": "Standardized Treatment Name",
                  "type": "SDTM Class Variable"
                },
                "parentDataset": {
                  "href": "/mdr/sdtmig/3-4/datasets/CM",
                  "title": "Concomitant/Prior Medications",
                  "type": "SDTM Dataset"
                },
                "parentProduct": {
                  "href": "/mdr/sdtmig/3-4",
                  "title": "Study Data Tabulation Model Implementation Guide: Human Clinical Trials",
                  "type": "Implementation Guide"
                },
                "priorVersion": {
                  "href": "/mdr/sdtmig/3-3/datasets/CM/variables/CMDECOD",
                  "title": "Standardized Medication Name",
                  "type": "SDTM Dataset Variable"
                },
                "rootItem": {
                  "href": "/mdr/root/sdtmig/datasets/CM/variables/CMDECOD",
                  "title": "Version-agnostic anchor resource for SDTMIG variable CM.CMDECOD",
                  "type": "Root Data Element"
                },
                "self": {
                  "href": "/mdr/sdtmig/3-4/datasets/CM/variables/CMDECOD",
                  "title": "Standardized Medication Name",
                  "type": "SDTM Dataset Variable"
                }
              },
              "core": "Perm",
              "description": "Standardized or dictionary-derived text description of CMTRT or CMMODIFY. Equivalent to the generic drug name in WHO Drug. The sponsor is expected to provide the dictionary name and version used to map the terms utilizing the external codelist element in the Define-XML document. If an intervention term does not have a decode value in the dictionary, then CMDECOD will be left blank.",
              "label": "Standardized Medication Name",
              "name": "CMDECOD",
              "ordinal": "9",
              "role": "Synonym Qualifier",
              "simpleDatatype": "Char"
            },
            {
              "_links": {
                "modelClassVariable": {
                  "href": "/mdr/sdtm/2-0/classes/Interventions/variables/--CAT",
                  "title": "Category",
                  "type": "SDTM Class Variable"
                },
                "parentDataset": {
                  "href": "/mdr/sdtmig/3-4/datasets/CM",
                  "title": "Concomitant/Prior Medications",
                  "type": "SDTM Dataset"
                },
                "parentProduct": {
                  "href": "/mdr/sdtmig/3-4",
                  "title": "Study Data Tabulation Model Implementation Guide: Human Clinical Trials",
                  "type": "Implementation Guide"
                },
                "priorVersion": {
                  "href": "/mdr/sdtmig/3-3/datasets/CM/variables/CMCAT",
                  "title": "Category for Medication",
                  "type": "SDTM Dataset Variable"
                },
                "rootItem": {
                  "href": "/mdr/root/sdtmig/datasets/CM/variables/CMCAT",
                  "title": "Version-agnostic anchor resource for SDTMIG variable CM.CMCAT",
                  "type": "Root Data Element"
                },
                "self": {
                  "href": "/mdr/sdtmig/3-4/datasets/CM/variables/CMCAT",
                  "title": "Category for Medication",
                  "type": "SDTM Dataset Variable"
                }
              },
              "core": "Perm",
              "description": "Used to define a category of medications/treatment. Examples: \"PRIOR\", \"CONCOMITANT\", \"ANTI-CANCER MEDICATION\", \"GENERAL CONMED\".",
              "label": "Category for Medication",
              "name": "CMCAT",
              "ordinal": "10",
              "role": "Grouping Qualifier",
              "simpleDatatype": "Char"
            },
            {
              "_links": {
                "modelClassVariable": {
                  "href": "/mdr/sdtm/2-0/classes/Interventions/variables/--SCAT",
                  "title": "Subcategory",
                  "type": "SDTM Class Variable"
                },
                "parentDataset": {
                  "href": "/mdr/sdtmig/3-4/datasets/CM",
                  "title": "Concomitant/Prior Medications",
                  "type": "SDTM Dataset"
                },
                "parentProduct": {
                  "href": "/mdr/sdtmig/3-4",
                  "title": "Study Data Tabulation Model Implementation Guide: Human Clinical Trials",
                  "type": "Implementation Guide"
                },
                "priorVersion": {
                  "href": "/mdr/sdtmig/3-3/datasets/CM/variables/CMSCAT",
                  "title": "Subcategory for Medication",
                  "type": "SDTM Dataset Variable"
                },
                "rootItem": {
                  "href": "/mdr/root/sdtmig/datasets/CM/variables/CMSCAT",
                  "title": "Version-agnostic anchor resource for SDTMIG variable CM.CMSCAT",
                  "type": "Root Data Element"
                },
                "self": {
                  "href": "/mdr/sdtmig/3-4/datasets/CM/variables/CMSCAT",
                  "title": "Subcategory for Medication",
                  "type": "SDTM Dataset Variable"
                }
              },
              "core": "Perm",
              "description": "A further categorization of medications/treatment. Examples: \"CHEMOTHERAPY\", \"HORMONAL THERAPY\", \"ALTERNATIVE THERAPY\".",
              "label": "Subcategory for Medication",
              "name": "CMSCAT",
              "ordinal": "11",
              "role": "Grouping Qualifier",
              "simpleDatatype": "Char"
            },
            {
              "_links": {
                "codelist": [
                  {
                    "href": "/mdr/root/ct/sdtmct/codelists/C66742",
                    "title": "Version-agnostic anchor resource for codelist C66742",
                    "type": "Root Value Domain"
                  }
                ],
                "modelClassVariable": {
                  "href": "/mdr/sdtm/2-0/classes/Interventions/variables/--PRESP",
                  "title": "Pre-Specified",
                  "type": "SDTM Class Variable"
                },
                "parentDataset": {
                  "href": "/mdr/sdtmig/3-4/datasets/CM",
                  "title": "Concomitant/Prior Medications",
                  "type": "SDTM Dataset"
                },
                "parentProduct": {
                  "href": "/mdr/sdtmig/3-4",
                  "title": "Study Data Tabulation Model Implementation Guide: Human Clinical Trials",
                  "type": "Implementation Guide"
                },
                "priorVersion": {
                  "href": "/mdr/sdtmig/3-3/datasets/CM/variables/CMPRESP",
                  "title": "CM Pre-specified",
                  "type": "SDTM Dataset Variable"
                },
                "rootItem": {
                  "href": "/mdr/root/sdtmig/datasets/CM/variables/CMPRESP",
                  "title": "Version-agnostic anchor resource for SDTMIG variable CM.CMPRESP",
                  "type": "Root Data Element"
                },
                "self": {
                  "href": "/mdr/sdtmig/3-4/datasets/CM/variables/CMPRESP",
                  "title": "CM Pre-specified",
                  "type": "SDTM Dataset Variable"
                }
              },
              "core": "Perm",
              "description": "Used to indicate whether (\"Y\"/null) information about the use of a specific medication was solicited on the CRF.",
              "label": "CM Pre-specified",
              "name": "CMPRESP",
              "ordinal": "12",
              "role": "Variable Qualifier",
              "simpleDatatype": "Char"
            },
            {
              "_links": {
                "codelist": [
                  {
                    "href": "/mdr/root/ct/sdtmct/codelists/C66742",
                    "title": "Version-agnostic anchor resource for codelist C66742",
                    "type": "Root Value Domain"
                  }
                ],
                "modelClassVariable": {
                  "href": "/mdr/sdtm/2-0/classes/Interventions/variables/--OCCUR",
                  "title": "Occurrence Indicator",
                  "type": "SDTM Class Variable"
                },
                "parentDataset": {
                  "href": "/mdr/sdtmig/3-4/datasets/CM",
                  "title": "Concomitant/Prior Medications",
                  "type": "SDTM Dataset"
                },
                "parentProduct": {
                  "href": "/mdr/sdtmig/3-4",
                  "title": "Study Data Tabulation Model Implementation Guide: Human Clinical Trials",
                  "type": "Implementation Guide"
                },
                "priorVersion": {
                  "href": "/mdr/sdtmig/3-3/datasets/CM/variables/CMOCCUR",
                  "title": "CM Occurrence",
                  "type": "SDTM Dataset Variable"
                },
                "rootItem": {
                  "href": "/mdr/root/sdtmig/datasets/CM/variables/CMOCCUR",
                  "title": "Version-agnostic anchor resource for SDTMIG variable CM.CMOCCUR",
                  "type": "Root Data Element"
                },
                "self": {
                  "href": "/mdr/sdtmig/3-4/datasets/CM/variables/CMOCCUR",
                  "title": "CM Occurrence",
                  "type": "SDTM Dataset Variable"
                }
              },
              "core": "Perm",
              "description": "When the use of a specific medication is solicited. CMOCCUR is used to indicate whether (\"Y\"/\"N\") use of the medication occurred. Values are null for medications not specifically solicited.",
              "label": "CM Occurrence",
              "name": "CMOCCUR",
              "ordinal": "13",
              "role": "Record Qualifier",
              "simpleDatatype": "Char"
            },
            {
              "_links": {
                "codelist": [
                  {
                    "href": "/mdr/root/ct/sdtmct/codelists/C66789",
                    "title": "Version-agnostic anchor resource for codelist C66789",
                    "type": "Root Value Domain"
                  }
                ],
                "modelClassVariable": {
                  "href": "/mdr/sdtm/2-0/classes/Interventions/variables/--STAT",
                  "title": "Completion Status",
                  "type": "SDTM Class Variable"
                },
                "parentDataset": {
                  "href": "/mdr/sdtmig/3-4/datasets/CM",
                  "title": "Concomitant/Prior Medications",
                  "type": "SDTM Dataset"
                },
                "parentProduct": {
                  "href": "/mdr/sdtmig/3-4",
                  "title": "Study Data Tabulation Model Implementation Guide: Human Clinical Trials",
                  "type": "Implementation Guide"
                },
                "priorVersion": {
                  "href": "/mdr/sdtmig/3-3/datasets/CM/variables/CMSTAT",
                  "title": "Completion Status",
                  "type": "SDTM Dataset Variable"
                },
                "rootItem": {
                  "href": "/mdr/root/sdtmig/datasets/CM/variables/CMSTAT",
                  "title": "Version-agnostic anchor resource for SDTMIG variable CM.CMSTAT",
                  "type": "Root Data Element"
                },
                "self": {
                  "href": "/mdr/sdtmig/3-4/datasets/CM/variables/CMSTAT",
                  "title": "Completion Status",
                  "type": "SDTM Dataset Variable"
                }
              },
              "core": "Perm",
              "description": "Used to indicate that a question about the occurrence of a prespecified intervention was not answered. Should be null or have a value of \"NOT DONE\".",
              "label": "Completion Status",
              "name": "CMSTAT",
              "ordinal": "14",
              "role": "Record Qualifier",
              "simpleDatatype": "Char"
            },
            {
              "_links": {
                "modelClassVariable": {
                  "href": "/mdr/sdtm/2-0/classes/Interventions/variables/--REASND",
                  "title": "Reason Not Done",
                  "type": "SDTM Class Variable"
                },
                "parentDataset": {
                  "href": "/mdr/sdtmig/3-4/datasets/CM",
                  "title": "Concomitant/Prior Medications",
                  "type": "SDTM Dataset"
                },
                "parentProduct": {
                  "href": "/mdr/sdtmig/3-4",
                  "title": "Study Data Tabulation Model Implementation Guide: Human Clinical Trials",
                  "type": "Implementation Guide"
                },
                "priorVersion": {
                  "href": "/mdr/sdtmig/3-3/datasets/CM/variables/CMREASND",
                  "title": "Reason Medication Not Collected",
                  "type": "SDTM Dataset Variable"
                },
                "rootItem": {
                  "href": "/mdr/root/sdtmig/datasets/CM/variables/CMREASND",
                  "title": "Version-agnostic anchor resource for SDTMIG variable CM.CMREASND",
                  "type": "Root Data Element"
                },
                "self": {
                  "href": "/mdr/sdtmig/3-4/datasets/CM/variables/CMREASND",
                  "title": "Reason Medication Not Collected",
                  "type": "SDTM Dataset Variable"
                }
              },
              "core": "Perm",
              "description": "Reason not done. Used in conjunction with CMSTAT when value is \"NOT DONE\".",
              "label": "Reason Medication Not Collected",
              "name": "CMREASND",
              "ordinal": "15",
              "role": "Record Qualifier",
              "simpleDatatype": "Char"
            },
            {
              "_links": {
                "modelClassVariable": {
                  "href": "/mdr/sdtm/2-0/classes/Interventions/variables/--INDC",
                  "title": "Indication",
                  "type": "SDTM Class Variable"
                },
                "parentDataset": {
                  "href": "/mdr/sdtmig/3-4/datasets/CM",
                  "title": "Concomitant/Prior Medications",
                  "type": "SDTM Dataset"
                },
                "parentProduct": {
                  "href": "/mdr/sdtmig/3-4",
                  "title": "Study Data Tabulation Model Implementation Guide: Human Clinical Trials",
                  "type": "Implementation Guide"
                },
                "priorVersion": {
                  "href": "/mdr/sdtmig/3-3/datasets/CM/variables/CMINDC",
                  "title": "Indication",
                  "type": "SDTM Dataset Variable"
                },
                "rootItem": {
                  "href": "/mdr/root/sdtmig/datasets/CM/variables/CMINDC",
                  "title": "Version-agnostic anchor resource for SDTMIG variable CM.CMINDC",
                  "type": "Root Data Element"
                },
                "self": {
                  "href": "/mdr/sdtmig/3-4/datasets/CM/variables/CMINDC",
                  "title": "Indication",
                  "type": "SDTM Dataset Variable"
                }
              },
              "core": "Perm",
              "description": "Denotes why a medication was taken or administered. Examples: \"NAUSEA\", \"HYPERTENSION\".",
              "label": "Indication",
              "name": "CMINDC",
              "ordinal": "16",
              "role": "Record Qualifier",
              "simpleDatatype": "Char"
            },
            {
              "_links": {
                "modelClassVariable": {
                  "href": "/mdr/sdtm/2-0/classes/Interventions/variables/--CLAS",
                  "title": "Class",
                  "type": "SDTM Class Variable"
                },
                "parentDataset": {
                  "href": "/mdr/sdtmig/3-4/datasets/CM",
                  "title": "Concomitant/Prior Medications",
                  "type": "SDTM Dataset"
                },
                "parentProduct": {
                  "href": "/mdr/sdtmig/3-4",
                  "title": "Study Data Tabulation Model Implementation Guide: Human Clinical Trials",
                  "type": "Implementation Guide"
                },
                "priorVersion": {
                  "href": "/mdr/sdtmig/3-3/datasets/CM/variables/CMCLAS",
                  "title": "Medication Class",
                  "type": "SDTM Dataset Variable"
                },
                "rootItem": {
                  "href": "/mdr/root/sdtmig/datasets/CM/variables/CMCLAS",
                  "title": "Version-agnostic anchor resource for SDTMIG variable CM.CMCLAS",
                  "type": "Root Data Element"
                },
                "self": {
                  "href": "/mdr/sdtmig/3-4/datasets/CM/variables/CMCLAS",
                  "title": "Medication Class",
                  "type": "SDTM Dataset Variable"
                }
              },
              "core": "Perm",
              "description": "Drug class. May be obtained from coding. When coding to a single class, populate with class value. If using a dictionary and coding to multiple classes, then follow Section 4.2.8.3, Multiple Values for a Non-result Qualifier Variable, or omit CMCLAS.",
              "label": "Medication Class",
              "name": "CMCLAS",
              "ordinal": "17",
              "role": "Variable Qualifier",
              "simpleDatatype": "Char"
            },
            {
              "_links": {
                "modelClassVariable": {
                  "href": "/mdr/sdtm/2-0/classes/Interventions/variables/--CLASCD",
                  "title": "Class Code",
                  "type": "SDTM Class Variable"
                },
                "parentDataset": {
                  "href": "/mdr/sdtmig/3-4/datasets/CM",
                  "title": "Concomitant/Prior Medications",
                  "type": "SDTM Dataset"
                },
                "parentProduct": {
                  "href": "/mdr/sdtmig/3-4",
                  "title": "Study Data Tabulation Model Implementation Guide: Human Clinical Trials",
                  "type": "Implementation Guide"
                },
                "priorVersion": {
                  "href": "/mdr/sdtmig/3-3/datasets/CM/variables/CMCLASCD",
                  "title": "Medication Class Code",
                  "type": "SDTM Dataset Variable"
                },
                "rootItem": {
                  "href": "/mdr/root/sdtmig/datasets/CM/variables/CMCLASCD",
                  "title": "Version-agnostic anchor resource for SDTMIG variable CM.CMCLASCD",
                  "type": "Root Data Element"
                },
                "self": {
                  "href": "/mdr/sdtmig/3-4/datasets/CM/variables/CMCLASCD",
                  "title": "Medication Class Code",
                  "type": "SDTM Dataset Variable"
                }
              },
              "core": "Perm",
              "description": "Class code corresponding to CMCLAS. Drug class. May be obtained from coding. When coding to a single class, populate with class code. If using a dictionary and coding to multiple classes, then follow Section 4.2.8.3, Multiple Values for a Non-result Qualifier Variable, or omit CMCLASCD.",
              "label": "Medication Class Code",
              "name": "CMCLASCD",
              "ordinal": "18",
              "role": "Variable Qualifier",
              "simpleDatatype": "Char"
            },
            {
              "_links": {
                "modelClassVariable": {
                  "href": "/mdr/sdtm/2-0/classes/Interventions/variables/--DOSE",
                  "title": "Dose",
                  "type": "SDTM Class Variable"
                },
                "parentDataset": {
                  "href": "/mdr/sdtmig/3-4/datasets/CM",
                  "title": "Concomitant/Prior Medications",
                  "type": "SDTM Dataset"
                },
                "parentProduct": {
                  "href": "/mdr/sdtmig/3-4",
                  "title": "Study Data Tabulation Model Implementation Guide: Human Clinical Trials",
                  "type": "Implementation Guide"
                },
                "priorVersion": {
                  "href": "/mdr/sdtmig/3-3/datasets/CM/variables/CMDOSE",
                  "title": "Dose per Administration",
                  "type": "SDTM Dataset Variable"
                },
                "rootItem": {
                  "href": "/mdr/root/sdtmig/datasets/CM/variables/CMDOSE",
                  "title": "Version-agnostic anchor resource for SDTMIG variable CM.CMDOSE",
                  "type": "Root Data Element"
                },
                "self": {
                  "href": "/mdr/sdtmig/3-4/datasets/CM/variables/CMDOSE",
                  "title": "Dose per Administration",
                  "type": "SDTM Dataset Variable"
                }
              },
              "core": "Perm",
              "description": "Amount of CMTRT given. Not populated when CMDOSTXT is populated.",
              "label": "Dose per Administration",
              "name": "CMDOSE",
              "ordinal": "19",
              "role": "Record Qualifier",
              "simpleDatatype": "Num"
            },
            {
              "_links": {
                "modelClassVariable": {
                  "href": "/mdr/sdtm/2-0/classes/Interventions/variables/--DOSTXT",
                  "title": "Dose Description",
                  "type": "SDTM Class Variable"
                },
                "parentDataset": {
                  "href": "/mdr/sdtmig/3-4/datasets/CM",
                  "title": "Concomitant/Prior Medications",
                  "type": "SDTM Dataset"
                },
                "parentProduct": {
                  "href": "/mdr/sdtmig/3-4",
                  "title": "Study Data Tabulation Model Implementation Guide: Human Clinical Trials",
                  "type": "Implementation Guide"
                },
                "priorVersion": {
                  "href": "/mdr/sdtmig/3-3/datasets/CM/variables/CMDOSTXT",
                  "title": "Dose Description",
                  "type": "SDTM Dataset Variable"
                },
                "rootItem": {
                  "href": "/mdr/root/sdtmig/datasets/CM/variables/CMDOSTXT",
                  "title": "Version-agnostic anchor resource for SDTMIG variable CM.CMDOSTXT",
                  "type": "Root Data Element"
                },
                "self": {
                  "href": "/mdr/sdtmig/3-4/datasets/CM/variables/CMDOSTXT",
                  "title": "Dose Description",
                  "type": "SDTM Dataset Variable"
                }
              },
              "core": "Perm",
              "description": "Dosing amounts or a range of dosing information collected in text form. Units may be stored in CMDOSU. Examples: \"200-400\", \"15-20\". Not populated when CMDOSE is populated.",
              "label": "Dose Description",
              "name": "CMDOSTXT",
              "ordinal": "20",
              "role": "Record Qualifier",
              "simpleDatatype": "Char"
            },
            {
              "_links": {
                "codelist": [
                  {
                    "href": "/mdr/root/ct/sdtmct/codelists/C71620",
                    "title": "Version-agnostic anchor resource for codelist C71620",
                    "type": "Root Value Domain"
                  }
                ],
                "modelClassVariable": {
                  "href": "/mdr/sdtm/2-0/classes/Interventions/variables/--DOSU",
                  "title": "Dose Units",
                  "type": "SDTM Class Variable"
                },
                "parentDataset": {
                  "href": "/mdr/sdtmig/3-4/datasets/CM",
                  "title": "Concomitant/Prior Medications",
                  "type": "SDTM Dataset"
                },
                "parentProduct": {
                  "href": "/mdr/sdtmig/3-4",
                  "title": "Study Data Tabulation Model Implementation Guide: Human Clinical Trials",
                  "type": "Implementation Guide"
                },
                "priorVersion": {
                  "href": "/mdr/sdtmig/3-3/datasets/CM/variables/CMDOSU",
                  "title": "Dose Units",
                  "type": "SDTM Dataset Variable"
                },
                "rootItem": {
                  "href": "/mdr/root/sdtmig/datasets/CM/variables/CMDOSU",
                  "title": "Version-agnostic anchor resource for SDTMIG variable CM.CMDOSU",
                  "type": "Root Data Element"
                },
                "self": {
                  "href": "/mdr/sdtmig/3-4/datasets/CM/variables/CMDOSU",
                  "title": "Dose Units",
                  "type": "SDTM Dataset Variable"
                }
              },
              "core": "Perm",
              "description": "Units for CMDOSE, CMDOSTOT, or CMDOSTXT. Examples: \"ng\", \"mg\", \"mg/kg\".",
              "label": "Dose Units",
              "name": "CMDOSU",
              "ordinal": "21",
              "role": "Variable Qualifier",
              "simpleDatatype": "Char"
            },
            {
              "_links": {
                "codelist": [
                  {
                    "href": "/mdr/root/ct/sdtmct/codelists/C66726",
                    "title": "Version-agnostic anchor resource for codelist C66726",
                    "type": "Root Value Domain"
                  }
                ],
                "modelClassVariable": {
                  "href": "/mdr/sdtm/2-0/classes/Interventions/variables/--DOSFRM",
                  "title": "Dose Form",
                  "type": "SDTM Class Variable"
                },
                "parentDataset": {
                  "href": "/mdr/sdtmig/3-4/datasets/CM",
                  "title": "Concomitant/Prior Medications",
                  "type": "SDTM Dataset"
                },
                "parentProduct": {
                  "href": "/mdr/sdtmig/3-4",
                  "title": "Study Data Tabulation Model Implementation Guide: Human Clinical Trials",
                  "type": "Implementation Guide"
                },
                "priorVersion": {
                  "href": "/mdr/sdtmig/3-3/datasets/CM/variables/CMDOSFRM",
                  "title": "Dose Form",
                  "type": "SDTM Dataset Variable"
                },
                "rootItem": {
                  "href": "/mdr/root/sdtmig/datasets/CM/variables/CMDOSFRM",
                  "title": "Version-agnostic anchor resource for SDTMIG variable CM.CMDOSFRM",
                  "type": "Root Data Element"
                },
                "self": {
                  "href": "/mdr/sdtmig/3-4/datasets/CM/variables/CMDOSFRM",
                  "title": "Dose Form",
                  "type": "SDTM Dataset Variable"
                }
              },
              "core": "Perm",
              "description": "Dose form for CMTRT. Examples: \"TABLET\", \"LOTION\".",
              "label": "Dose Form",
              "name": "CMDOSFRM",
              "ordinal": "22",
              "role": "Variable Qualifier",
              "simpleDatatype": "Char"
            },
            {
              "_links": {
                "codelist": [
                  {
                    "href": "/mdr/root/ct/sdtmct/codelists/C71113",
                    "title": "Version-agnostic anchor resource for codelist C71113",
                    "type": "Root Value Domain"
                  }
                ],
                "modelClassVariable": {
                  "href": "/mdr/sdtm/2-0/classes/Interventions/variables/--DOSFRQ",
                  "title": "Dosing Frequency per Interval",
                  "type": "SDTM Class Variable"
                },
                "parentDataset": {
                  "href": "/mdr/sdtmig/3-4/datasets/CM",
                  "title": "Concomitant/Prior Medications",
                  "type": "SDTM Dataset"
                },
                "parentProduct": {
                  "href": "/mdr/sdtmig/3-4",
                  "title": "Study Data Tabulation Model Implementation Guide: Human Clinical Trials",
                  "type": "Implementation Guide"
                },
                "priorVersion": {
                  "href": "/mdr/sdtmig/3-3/datasets/CM/variables/CMDOSFRQ",
                  "title": "Dosing Frequency per Interval",
                  "type": "SDTM Dataset Variable"
                },
                "rootItem": {
                  "href": "/mdr/root/sdtmig/datasets/CM/variables/CMDOSFRQ",
                  "title": "Version-agnostic anchor resource for SDTMIG variable CM.CMDOSFRQ",
                  "type": "Root Data Element"
                },
                "self": {
                  "href": "/mdr/sdtmig/3-4/datasets/CM/variables/CMDOSFRQ",
                  "title": "Dosing Frequency per Interval",
                  "type": "SDTM Dataset Variable"
                }
              },
              "core": "Perm",
              "description": "Usually expressed as the number of repeated administrations of CMDOSE within a specific time period. Examples: \"BID\" (twice daily), \"Q12H\" (every 12 hours).",
              "label": "Dosing Frequency per Interval",
              "name": "CMDOSFRQ",
              "ordinal": "23",
              "role": "Record Qualifier",
              "simpleDatatype": "Char"
            },
            {
              "_links": {
                "modelClassVariable": {
                  "href": "/mdr/sdtm/2-0/classes/Interventions/variables/--DOSTOT",
                  "title": "Total Daily Dose",
                  "type": "SDTM Class Variable"
                },
                "parentDataset": {
                  "href": "/mdr/sdtmig/3-4/datasets/CM",
                  "title": "Concomitant/Prior Medications",
                  "type": "SDTM Dataset"
                },
                "parentProduct": {
                  "href": "/mdr/sdtmig/3-4",
                  "title": "Study Data Tabulation Model Implementation Guide: Human Clinical Trials",
                  "type": "Implementation Guide"
                },
                "priorVersion": {
                  "href": "/mdr/sdtmig/3-3/datasets/CM/variables/CMDOSTOT",
                  "title": "Total Daily Dose",
                  "type": "SDTM Dataset Variable"
                },
                "rootItem": {
                  "href": "/mdr/root/sdtmig/datasets/CM/variables/CMDOSTOT",
                  "title": "Version-agnostic anchor resource for SDTMIG variable CM.CMDOSTOT",
                  "type": "Root Data Element"
                },
                "self": {
                  "href": "/mdr/sdtmig/3-4/datasets/CM/variables/CMDOSTOT",
                  "title": "Total Daily Dose",
                  "type": "SDTM Dataset Variable"
                }
              },
              "core": "Perm",
              "description": "Total daily dose of CMTRT using the units in CMDOSU. Used when dosing is collected as total daily dose. Total dose over a period other than day could be recorded in a separate supplemental qualifier variable.",
              "label": "Total Daily Dose",
              "name": "CMDOSTOT",
              "ordinal": "24",
              "role": "Record Qualifier",
              "simpleDatatype": "Num"
            },
            {
              "_links": {
                "modelClassVariable": {
                  "href": "/mdr/sdtm/2-0/classes/Interventions/variables/--DOSRGM",
                  "title": "Intended Dose Regimen",
                  "type": "SDTM Class Variable"
                },
                "parentDataset": {
                  "href": "/mdr/sdtmig/3-4/datasets/CM",
                  "title": "Concomitant/Prior Medications",
                  "type": "SDTM Dataset"
                },
                "parentProduct": {
                  "href": "/mdr/sdtmig/3-4",
                  "title": "Study Data Tabulation Model Implementation Guide: Human Clinical Trials",
                  "type": "Implementation Guide"
                },
                "priorVersion": {
                  "href": "/mdr/sdtmig/3-3/datasets/CM/variables/CMDOSRGM",
                  "title": "Intended Dose Regimen",
                  "type": "SDTM Dataset Variable"
                },
                "rootItem": {
                  "href": "/mdr/root/sdtmig/datasets/CM/variables/CMDOSRGM",
                  "title": "Version-agnostic anchor resource for SDTMIG variable CM.CMDOSRGM",
                  "type": "Root Data Element"
                },
                "self": {
                  "href": "/mdr/sdtmig/3-4/datasets/CM/variables/CMDOSRGM",
                  "title": "Intended Dose Regimen",
                  "type": "SDTM Dataset Variable"
                }
              },
              "core": "Perm",
              "description": "Text description of the (intended) schedule or regimen for the Intervention. Example: \"TWO WEEKS ON, TWO WEEKS OFF\".",
              "label": "Intended Dose Regimen",
              "name": "CMDOSRGM",
              "ordinal": "25",
              "role": "Record Qualifier",
              "simpleDatatype": "Char"
            },
            {
              "_links": {
                "codelist": [
                  {
                    "href": "/mdr/root/ct/sdtmct/codelists/C66729",
                    "title": "Version-agnostic anchor resource for codelist C66729",
                    "type": "Root Value Domain"
                  }
                ],
                "modelClassVariable": {
                  "href": "/mdr/sdtm/2-0/classes/Interventions/variables/--ROUTE",
                  "title": "Route of Administration",
                  "type": "SDTM Class Variable"
                },
                "parentDataset": {
                  "href": "/mdr/sdtmig/3-4/datasets/CM",
                  "title": "Concomitant/Prior Medications",
                  "type": "SDTM Dataset"
                },
                "parentProduct": {
                  "href": "/mdr/sdtmig/3-4",
                  "title": "Study Data Tabulation Model Implementation Guide: Human Clinical Trials",
                  "type": "Implementation Guide"
                },
                "priorVersion": {
                  "href": "/mdr/sdtmig/3-3/datasets/CM/variables/CMROUTE",
                  "title": "Route of Administration",
                  "type": "SDTM Dataset Variable"
                },
                "rootItem": {
                  "href": "/mdr/root/sdtmig/datasets/CM/variables/CMROUTE",
                  "title": "Version-agnostic anchor resource for SDTMIG variable CM.CMROUTE",
                  "type": "Root Data Element"
                },
                "self": {
                  "href": "/mdr/sdtmig/3-4/datasets/CM/variables/CMROUTE",
                  "title": "Route of Administration",
                  "type": "SDTM Dataset Variable"
                }
              },
              "core": "Perm",
              "description": "Route of administration for the intervention. Examples: \"ORAL\", \"INTRAVENOUS\".",
              "label": "Route of Administration",
              "name": "CMROUTE",
              "ordinal": "26",
              "role": "Variable Qualifier",
              "simpleDatatype": "Char"
            },
            {
              "_links": {
                "modelClassVariable": {
                  "href": "/mdr/sdtm/2-0/classes/Interventions/variables/--ADJ",
                  "title": "Reason for Dose Adjustment",
                  "type": "SDTM Class Variable"
                },
                "parentDataset": {
                  "href": "/mdr/sdtmig/3-4/datasets/CM",
                  "title": "Concomitant/Prior Medications",
                  "type": "SDTM Dataset"
                },
                "parentProduct": {
                  "href": "/mdr/sdtmig/3-4",
                  "title": "Study Data Tabulation Model Implementation Guide: Human Clinical Trials",
                  "type": "Implementation Guide"
                },
                "priorVersion": {
                  "href": "/mdr/sdtmig/3-3/datasets/CM/variables/CMADJ",
                  "title": "Reason for Dose Adjustment",
                  "type": "SDTM Dataset Variable"
                },
                "rootItem": {
                  "href": "/mdr/root/sdtmig/datasets/CM/variables/CMADJ",
                  "title": "Version-agnostic anchor resource for SDTMIG variable CM.CMADJ",
                  "type": "Root Data Element"
                },
                "self": {
                  "href": "/mdr/sdtmig/3-4/datasets/CM/variables/CMADJ",
                  "title": "Reason for Dose Adjustment",
                  "type": "SDTM Dataset Variable"
                }
              },
              "core": "Perm",
              "description": "Describes reason or explanation of why a dose is adjusted. Examples: \"ADVERSE EVENT\", \"INSUFFICIENT RESPONSE\", \"NON-MEDICAL REASON\".",
              "label": "Reason for Dose Adjustment",
              "name": "CMADJ",
              "ordinal": "27",
              "role": "Record Qualifier",
              "simpleDatatype": "Char"
            },
            {
              "_links": {
                "modelClassVariable": {
                  "href": "/mdr/sdtm/2-0/classes/Interventions/variables/--RSDISC",
                  "title": "Reason for Treatment Discontinuation",
                  "type": "SDTM Class Variable"
                },
                "parentDataset": {
                  "href": "/mdr/sdtmig/3-4/datasets/CM",
                  "title": "Concomitant/Prior Medications",
                  "type": "SDTM Dataset"
                },
                "parentProduct": {
                  "href": "/mdr/sdtmig/3-4",
                  "title": "Study Data Tabulation Model Implementation Guide: Human Clinical Trials",
                  "type": "Implementation Guide"
                },
                "priorVersion": {
                  "href": "/mdr/sdtmig/3-3/datasets/CM/variables/CMRSDISC",
                  "title": "Reason the Intervention Was Discontinued",
                  "type": "SDTM Dataset Variable"
                },
                "rootItem": {
                  "href": "/mdr/root/sdtmig/datasets/CM/variables/CMRSDISC",
                  "title": "Version-agnostic anchor resource for SDTMIG variable CM.CMRSDISC",
                  "type": "Root Data Element"
                },
                "self": {
                  "href": "/mdr/sdtmig/3-4/datasets/CM/variables/CMRSDISC",
                  "title": "Reason the Intervention Was Discontinued",
                  "type": "SDTM Dataset Variable"
                }
              },
              "core": "Perm",
              "description": "When dosing of a treatment is recorded over multiple successive records, this variable is applicable only for the (chronologically) last record for the treatment.",
              "label": "Reason the Intervention Was Discontinued",
              "name": "CMRSDISC",
              "ordinal": "28",
              "role": "Record Qualifier",
              "simpleDatatype": "Char"
            },
            {
              "_links": {
                "modelClassVariable": {
                  "href": "/mdr/sdtm/2-0/classes/GeneralObservations/variables/TAETORD",
                  "title": "Planned Order of Element Within Arm",
                  "type": "SDTM Class Variable"
                },
                "parentDataset": {
                  "href": "/mdr/sdtmig/3-4/datasets/CM",
                  "title": "Concomitant/Prior Medications",
                  "type": "SDTM Dataset"
                },
                "parentProduct": {
                  "href": "/mdr/sdtmig/3-4",
                  "title": "Study Data Tabulation Model Implementation Guide: Human Clinical Trials",
                  "type": "Implementation Guide"
                },
                "priorVersion": {
                  "href": "/mdr/sdtmig/3-3/datasets/CM/variables/TAETORD",
                  "title": "Planned Order of Element within Arm",
                  "type": "SDTM Dataset Variable"
                },
                "rootItem": {
                  "href": "/mdr/root/sdtmig/datasets/CM/variables/TAETORD",
                  "title": "Version-agnostic anchor resource for SDTMIG variable CM.TAETORD",
                  "type": "Root Data Element"
                },
                "self": {
                  "href": "/mdr/sdtmig/3-4/datasets/CM/variables/TAETORD",
                  "title": "Planned Order of Element within Arm",
                  "type": "SDTM Dataset Variable"
                }
              },
              "core": "Perm",
              "description": "Number that gives the planned order of the element within the arm for the element in which the medication administration started. Null for medications that started before study participation.",
              "label": "Planned Order of Element within Arm",
              "name": "TAETORD",
              "ordinal": "29",
              "role": "Timing",
              "simpleDatatype": "Num"
            },
            {
              "_links": {
                "codelist": [
                  {
                    "href": "/mdr/root/ct/sdtmct/codelists/C99079",
                    "title": "Version-agnostic anchor resource for codelist C99079",
                    "type": "Root Value Domain"
                  }
                ],
                "modelClassVariable": {
                  "href": "/mdr/sdtm/2-0/classes/GeneralObservations/variables/EPOCH",
                  "title": "Epoch",
                  "type": "SDTM Class Variable"
                },
                "parentDataset": {
                  "href": "/mdr/sdtmig/3-4/datasets/CM",
                  "title": "Concomitant/Prior Medications",
                  "type": "SDTM Dataset"
                },
                "parentProduct": {
                  "href": "/mdr/sdtmig/3-4",
                  "title": "Study Data Tabulation Model Implementation Guide: Human Clinical Trials",
                  "type": "Implementation Guide"
                },
                "priorVersion": {
                  "href": "/mdr/sdtmig/3-3/datasets/CM/variables/EPOCH",
                  "title": "Epoch",
                  "type": "SDTM Dataset Variable"
                },
                "rootItem": {
                  "href": "/mdr/root/sdtmig/datasets/CM/variables/EPOCH",
                  "title": "Version-agnostic anchor resource for SDTMIG variable CM.EPOCH",
                  "type": "Root Data Element"
                },
                "self": {
                  "href": "/mdr/sdtmig/3-4/datasets/CM/variables/EPOCH",
                  "title": "Epoch",
                  "type": "SDTM Dataset Variable"
                }
              },
              "core": "Perm",
              "description": "Epoch associated with the start date/time of the medication administration. Null for medications that started before study participation.",
              "label": "Epoch",
              "name": "EPOCH",
              "ordinal": "30",
              "role": "Timing",
              "simpleDatatype": "Char"
            },
            {
              "_links": {
                "modelClassVariable": {
                  "href": "/mdr/sdtm/2-0/classes/GeneralObservations/variables/--STDTC",
                  "title": "Start Date/Time of Observation",
                  "type": "SDTM Class Variable"
                },
                "parentDataset": {
                  "href": "/mdr/sdtmig/3-4/datasets/CM",
                  "title": "Concomitant/Prior Medications",
                  "type": "SDTM Dataset"
                },
                "parentProduct": {
                  "href": "/mdr/sdtmig/3-4",
                  "title": "Study Data Tabulation Model Implementation Guide: Human Clinical Trials",
                  "type": "Implementation Guide"
                },
                "priorVersion": {
                  "href": "/mdr/sdtmig/3-3/datasets/CM/variables/CMSTDTC",
                  "title": "Start Date/Time of Medication",
                  "type": "SDTM Dataset Variable"
                },
                "rootItem": {
                  "href": "/mdr/root/sdtmig/datasets/CM/variables/CMSTDTC",
                  "title": "Version-agnostic anchor resource for SDTMIG variable CM.CMSTDTC",
                  "type": "Root Data Element"
                },
                "self": {
                  "href": "/mdr/sdtmig/3-4/datasets/CM/variables/CMSTDTC",
                  "title": "Start Date/Time of Medication",
                  "type": "SDTM Dataset Variable"
                }
              },
              "core": "Perm",
              "describedValueDomain": "ISO 8601 datetime or interval",
              "description": "Start date/time of the medication administration represented in ISO 8601 character format.",
              "label": "Start Date/Time of Medication",
              "name": "CMSTDTC",
              "ordinal": "31",
              "role": "Timing",
              "simpleDatatype": "Char"
            },
            {
              "_links": {
                "modelClassVariable": {
                  "href": "/mdr/sdtm/2-0/classes/GeneralObservations/variables/--ENDTC",
                  "title": "End Date/Time of Observation",
                  "type": "SDTM Class Variable"
                },
                "parentDataset": {
                  "href": "/mdr/sdtmig/3-4/datasets/CM",
                  "title": "Concomitant/Prior Medications",
                  "type": "SDTM Dataset"
                },
                "parentProduct": {
                  "href": "/mdr/sdtmig/3-4",
                  "title": "Study Data Tabulation Model Implementation Guide: Human Clinical Trials",
                  "type": "Implementation Guide"
                },
                "priorVersion": {
                  "href": "/mdr/sdtmig/3-3/datasets/CM/variables/CMENDTC",
                  "title": "End Date/Time of Medication",
                  "type": "SDTM Dataset Variable"
                },
                "rootItem": {
                  "href": "/mdr/root/sdtmig/datasets/CM/variables/CMENDTC",
                  "title": "Version-agnostic anchor resource for SDTMIG variable CM.CMENDTC",
                  "type": "Root Data Element"
                },
                "self": {
                  "href": "/mdr/sdtmig/3-4/datasets/CM/variables/CMENDTC",
                  "title": "End Date/Time of Medication",
                  "type": "SDTM Dataset Variable"
                }
              },
              "core": "Perm",
              "describedValueDomain": "ISO 8601 datetime or interval",
              "description": "End date/time of the medication administration represented in ISO 8601 character format.",
              "label": "End Date/Time of Medication",
              "name": "CMENDTC",
              "ordinal": "32",
              "role": "Timing",
              "simpleDatatype": "Char"
            },
            {
              "_links": {
                "modelClassVariable": {
                  "href": "/mdr/sdtm/2-0/classes/GeneralObservations/variables/--STDY",
                  "title": "Study Day of Start of Observation",
                  "type": "SDTM Class Variable"
                },
                "parentDataset": {
                  "href": "/mdr/sdtmig/3-4/datasets/CM",
                  "title": "Concomitant/Prior Medications",
                  "type": "SDTM Dataset"
                },
                "parentProduct": {
                  "href": "/mdr/sdtmig/3-4",
                  "title": "Study Data Tabulation Model Implementation Guide: Human Clinical Trials",
                  "type": "Implementation Guide"
                },
                "priorVersion": {
                  "href": "/mdr/sdtmig/3-3/datasets/CM/variables/CMSTDY",
                  "title": "Study Day of Start of Medication",
                  "type": "SDTM Dataset Variable"
                },
                "rootItem": {
                  "href": "/mdr/root/sdtmig/datasets/CM/variables/CMSTDY",
                  "title": "Version-agnostic anchor resource for SDTMIG variable CM.CMSTDY",
                  "type": "Root Data Element"
                },
                "self": {
                  "href": "/mdr/sdtmig/3-4/datasets/CM/variables/CMSTDY",
                  "title": "Study Day of Start of Medication",
                  "type": "SDTM Dataset Variable"
                }
              },
              "core": "Perm",
              "description": "Study day of start of medication relative to the sponsor-defined RFSTDTC.",
              "label": "Study Day of Start of Medication",
              "name": "CMSTDY",
              "ordinal": "33",
              "role": "Timing",
              "simpleDatatype": "Num"
            },
            {
              "_links": {
                "modelClassVariable": {
                  "href": "/mdr/sdtm/2-0/classes/GeneralObservations/variables/--ENDY",
                  "title": "Study Day of End of Observation",
                  "type": "SDTM Class Variable"
                },
                "parentDataset": {
                  "href": "/mdr/sdtmig/3-4/datasets/CM",
                  "title": "Concomitant/Prior Medications",
                  "type": "SDTM Dataset"
                },
                "parentProduct": {
                  "href": "/mdr/sdtmig/3-4",
                  "title": "Study Data Tabulation Model Implementation Guide: Human Clinical Trials",
                  "type": "Implementation Guide"
                },
                "priorVersion": {
                  "href": "/mdr/sdtmig/3-3/datasets/CM/variables/CMENDY",
                  "title": "Study Day of End of Medication",
                  "type": "SDTM Dataset Variable"
                },
                "rootItem": {
                  "href": "/mdr/root/sdtmig/datasets/CM/variables/CMENDY",
                  "title": "Version-agnostic anchor resource for SDTMIG variable CM.CMENDY",
                  "type": "Root Data Element"
                },
                "self": {
                  "href": "/mdr/sdtmig/3-4/datasets/CM/variables/CMENDY",
                  "title": "Study Day of End of Medication",
                  "type": "SDTM Dataset Variable"
                }
              },
              "core": "Perm",
              "description": "Study day of end of medication relative to the sponsor-defined RFSTDTC.",
              "label": "Study Day of End of Medication",
              "name": "CMENDY",
              "ordinal": "34",
              "role": "Timing",
              "simpleDatatype": "Num"
            },
            {
              "_links": {
                "modelClassVariable": {
                  "href": "/mdr/sdtm/2-0/classes/GeneralObservations/variables/--DUR",
                  "title": "Collected Duration",
                  "type": "SDTM Class Variable"
                },
                "parentDataset": {
                  "href": "/mdr/sdtmig/3-4/datasets/CM",
                  "title": "Concomitant/Prior Medications",
                  "type": "SDTM Dataset"
                },
                "parentProduct": {
                  "href": "/mdr/sdtmig/3-4",
                  "title": "Study Data Tabulation Model Implementation Guide: Human Clinical Trials",
                  "type": "Implementation Guide"
                },
                "priorVersion": {
                  "href": "/mdr/sdtmig/3-3/datasets/CM/variables/CMDUR",
                  "title": "Duration",
                  "type": "SDTM Dataset Variable"
                },
                "rootItem": {
                  "href": "/mdr/root/sdtmig/datasets/CM/variables/CMDUR",
                  "title": "Version-agnostic anchor resource for SDTMIG variable CM.CMDUR",
                  "type": "Root Data Element"
                },
                "self": {
                  "href": "/mdr/sdtmig/3-4/datasets/CM/variables/CMDUR",
                  "title": "Duration",
                  "type": "SDTM Dataset Variable"
                }
              },
              "core": "Perm",
              "describedValueDomain": "ISO 8601 duration",
              "description": "Collected duration for a treatment episode. Used only if collected on the CRF and not derived from start and end date/times.",
              "label": "Duration",
              "name": "CMDUR",
              "ordinal": "35",
              "role": "Timing",
              "simpleDatatype": "Char"
            },
            {
              "_links": {
                "codelist": [
                  {
                    "href": "/mdr/root/ct/sdtmct/codelists/C66728",
                    "title": "Version-agnostic anchor resource for codelist C66728",
                    "type": "Root Value Domain"
                  }
                ],
                "modelClassVariable": {
                  "href": "/mdr/sdtm/2-0/classes/GeneralObservations/variables/--STRF",
                  "title": "Start Relative to Reference Period",
                  "type": "SDTM Class Variable"
                },
                "parentDataset": {
                  "href": "/mdr/sdtmig/3-4/datasets/CM",
                  "title": "Concomitant/Prior Medications",
                  "type": "SDTM Dataset"
                },
                "parentProduct": {
                  "href": "/mdr/sdtmig/3-4",
                  "title": "Study Data Tabulation Model Implementation Guide: Human Clinical Trials",
                  "type": "Implementation Guide"
                },
                "priorVersion": {
                  "href": "/mdr/sdtmig/3-3/datasets/CM/variables/CMSTRF",
                  "title": "Start Relative to Reference Period",
                  "type": "SDTM Dataset Variable"
                },
                "rootItem": {
                  "href": "/mdr/root/sdtmig/datasets/CM/variables/CMSTRF",
                  "title": "Version-agnostic anchor resource for SDTMIG variable CM.CMSTRF",
                  "type": "Root Data Element"
                },
                "self": {
                  "href": "/mdr/sdtmig/3-4/datasets/CM/variables/CMSTRF",
                  "title": "Start Relative to Reference Period",
                  "type": "SDTM Dataset Variable"
                }
              },
              "core": "Perm",
              "description": "Describes the start of the medication relative to sponsor-defined reference period. The sponsor-defined reference period is a continuous period of time defined by a discrete starting point and a discrete ending point (represented by RFSTDTC and RFENDTC in Demographics). If information such as \"PRIOR\" was collected, this information may be translated into CMSTRF. \\n Not all values of the codelist are allowable for this variable. See Section 4.4.7, Use of Relative Timing Variables.",
              "label": "Start Relative to Reference Period",
              "name": "CMSTRF",
              "ordinal": "36",
              "role": "Timing",
              "simpleDatatype": "Char"
            },
            {
              "_links": {
                "codelist": [
                  {
                    "href": "/mdr/root/ct/sdtmct/codelists/C66728",
                    "title": "Version-agnostic anchor resource for codelist C66728",
                    "type": "Root Value Domain"
                  }
                ],
                "modelClassVariable": {
                  "href": "/mdr/sdtm/2-0/classes/GeneralObservations/variables/--ENRF",
                  "title": "End Relative to Reference Period",
                  "type": "SDTM Class Variable"
                },
                "parentDataset": {
                  "href": "/mdr/sdtmig/3-4/datasets/CM",
                  "title": "Concomitant/Prior Medications",
                  "type": "SDTM Dataset"
                },
                "parentProduct": {
                  "href": "/mdr/sdtmig/3-4",
                  "title": "Study Data Tabulation Model Implementation Guide: Human Clinical Trials",
                  "type": "Implementation Guide"
                },
                "priorVersion": {
                  "href": "/mdr/sdtmig/3-3/datasets/CM/variables/CMENRF",
                  "title": "End Relative to Reference Period",
                  "type": "SDTM Dataset Variable"
                },
                "rootItem": {
                  "href": "/mdr/root/sdtmig/datasets/CM/variables/CMENRF",
                  "title": "Version-agnostic anchor resource for SDTMIG variable CM.CMENRF",
                  "type": "Root Data Element"
                },
                "self": {
                  "href": "/mdr/sdtmig/3-4/datasets/CM/variables/CMENRF",
                  "title": "End Relative to Reference Period",
                  "type": "SDTM Dataset Variable"
                }
              },
              "core": "Perm",
              "description": "Describes the end of the medication relative to the sponsor-defined reference period. The sponsor-defined reference period is a continuous period of time defined by a discrete starting point and a discrete ending point (represented by RFSTDTC and RFENDTC in Demographics). If information such as \"PRIOR\", \"ONGOING, or \"CONTINUING\" was collected, this information may be translated into CMENRF. \\n Not all values of the codelist are allowable for this variable. See Section 4.4.7, Use of Relative Timing Variables.",
              "label": "End Relative to Reference Period",
              "name": "CMENRF",
              "ordinal": "37",
              "role": "Timing",
              "simpleDatatype": "Char"
            },
            {
              "_links": {
                "codelist": [
                  {
                    "href": "/mdr/root/ct/sdtmct/codelists/C66728",
                    "title": "Version-agnostic anchor resource for codelist C66728",
                    "type": "Root Value Domain"
                  }
                ],
                "modelClassVariable": {
                  "href": "/mdr/sdtm/2-0/classes/GeneralObservations/variables/--STRTPT",
                  "title": "Start Relative to Reference Time Point",
                  "type": "SDTM Class Variable"
                },
                "parentDataset": {
                  "href": "/mdr/sdtmig/3-4/datasets/CM",
                  "title": "Concomitant/Prior Medications",
                  "type": "SDTM Dataset"
                },
                "parentProduct": {
                  "href": "/mdr/sdtmig/3-4",
                  "title": "Study Data Tabulation Model Implementation Guide: Human Clinical Trials",
                  "type": "Implementation Guide"
                },
                "priorVersion": {
                  "href": "/mdr/sdtmig/3-3/datasets/CM/variables/CMSTRTPT",
                  "title": "Start Relative to Reference Time Point",
                  "type": "SDTM Dataset Variable"
                },
                "rootItem": {
                  "href": "/mdr/root/sdtmig/datasets/CM/variables/CMSTRTPT",
                  "title": "Version-agnostic anchor resource for SDTMIG variable CM.CMSTRTPT",
                  "type": "Root Data Element"
                },
                "self": {
                  "href": "/mdr/sdtmig/3-4/datasets/CM/variables/CMSTRTPT",
                  "title": "Start Relative to Reference Time Point",
                  "type": "SDTM Dataset Variable"
                }
              },
              "core": "Perm",
              "description": "Identifies the start of the medication as being before or after the sponsor-defined reference time point defined by variable CMSTTPT. \\n Not all values of the codelist are allowable for this variable. See Section 4.4.7, Use of Relative Timing Variables.",
              "label": "Start Relative to Reference Time Point",
              "name": "CMSTRTPT",
              "ordinal": "38",
              "role": "Timing",
              "simpleDatatype": "Char"
            },
            {
              "_links": {
                "modelClassVariable": {
                  "href": "/mdr/sdtm/2-0/classes/GeneralObservations/variables/--STTPT",
                  "title": "Start Reference Time Point",
                  "type": "SDTM Class Variable"
                },
                "parentDataset": {
                  "href": "/mdr/sdtmig/3-4/datasets/CM",
                  "title": "Concomitant/Prior Medications",
                  "type": "SDTM Dataset"
                },
                "parentProduct": {
                  "href": "/mdr/sdtmig/3-4",
                  "title": "Study Data Tabulation Model Implementation Guide: Human Clinical Trials",
                  "type": "Implementation Guide"
                },
                "priorVersion": {
                  "href": "/mdr/sdtmig/3-3/datasets/CM/variables/CMSTTPT",
                  "title": "Start Reference Time Point",
                  "type": "SDTM Dataset Variable"
                },
                "rootItem": {
                  "href": "/mdr/root/sdtmig/datasets/CM/variables/CMSTTPT",
                  "title": "Version-agnostic anchor resource for SDTMIG variable CM.CMSTTPT",
                  "type": "Root Data Element"
                },
                "self": {
                  "href": "/mdr/sdtmig/3-4/datasets/CM/variables/CMSTTPT",
                  "title": "Start Reference Time Point",
                  "type": "SDTM Dataset Variable"
                }
              },
              "core": "Perm",
              "description": "Description or date/time in ISO 8601 character format of the sponsor-defined reference point referred to by CMSTRTPT. Examples: \"2003-12-15\", \"VISIT 1\".",
              "label": "Start Reference Time Point",
              "name": "CMSTTPT",
              "ordinal": "39",
              "role": "Timing",
              "simpleDatatype": "Char"
            },
            {
              "_links": {
                "codelist": [
                  {
                    "href": "/mdr/root/ct/sdtmct/codelists/C66728",
                    "title": "Version-agnostic anchor resource for codelist C66728",
                    "type": "Root Value Domain"
                  }
                ],
                "modelClassVariable": {
                  "href": "/mdr/sdtm/2-0/classes/GeneralObservations/variables/--ENRTPT",
                  "title": "End Relative to Reference Time Point",
                  "type": "SDTM Class Variable"
                },
                "parentDataset": {
                  "href": "/mdr/sdtmig/3-4/datasets/CM",
                  "title": "Concomitant/Prior Medications",
                  "type": "SDTM Dataset"
                },
                "parentProduct": {
                  "href": "/mdr/sdtmig/3-4",
                  "title": "Study Data Tabulation Model Implementation Guide: Human Clinical Trials",
                  "type": "Implementation Guide"
                },
                "priorVersion": {
                  "href": "/mdr/sdtmig/3-3/datasets/CM/variables/CMENRTPT",
                  "title": "End Relative to Reference Time Point",
                  "type": "SDTM Dataset Variable"
                },
                "rootItem": {
                  "href": "/mdr/root/sdtmig/datasets/CM/variables/CMENRTPT",
                  "title": "Version-agnostic anchor resource for SDTMIG variable CM.CMENRTPT",
                  "type": "Root Data Element"
                },
                "self": {
                  "href": "/mdr/sdtmig/3-4/datasets/CM/variables/CMENRTPT",
                  "title": "End Relative to Reference Time Point",
                  "type": "SDTM Dataset Variable"
                }
              },
              "core": "Perm",
              "description": "Identifies the end of the medication as being before or after the sponsor-defined reference time point defined by variable CMENTPT. \\n Not all values of the codelist are allowable for this variable. See Section 4.4.7, Use of Relative Timing Variables.",
              "label": "End Relative to Reference Time Point",
              "name": "CMENRTPT",
              "ordinal": "40",
              "role": "Timing",
              "simpleDatatype": "Char"
            },
            {
              "_links": {
                "modelClassVariable": {
                  "href": "/mdr/sdtm/2-0/classes/GeneralObservations/variables/--ENTPT",
                  "title": "End Reference Time Point",
                  "type": "SDTM Class Variable"
                },
                "parentDataset": {
                  "href": "/mdr/sdtmig/3-4/datasets/CM",
                  "title": "Concomitant/Prior Medications",
                  "type": "SDTM Dataset"
                },
                "parentProduct": {
                  "href": "/mdr/sdtmig/3-4",
                  "title": "Study Data Tabulation Model Implementation Guide: Human Clinical Trials",
                  "type": "Implementation Guide"
                },
                "priorVersion": {
                  "href": "/mdr/sdtmig/3-3/datasets/CM/variables/CMENTPT",
                  "title": "End Reference Time Point",
                  "type": "SDTM Dataset Variable"
                },
                "rootItem": {
                  "href": "/mdr/root/sdtmig/datasets/CM/variables/CMENTPT",
                  "title": "Version-agnostic anchor resource for SDTMIG variable CM.CMENTPT",
                  "type": "Root Data Element"
                },
                "self": {
                  "href": "/mdr/sdtmig/3-4/datasets/CM/variables/CMENTPT",
                  "title": "End Reference Time Point",
                  "type": "SDTM Dataset Variable"
                }
              },
              "core": "Perm",
              "description": "Description or date/time in ISO 8601 character format of the sponsor-defined reference point referred to by CMENRTPT. Examples: \"2003-12-25\", \"VISIT 2\".",
              "label": "End Reference Time Point",
              "name": "CMENTPT",
              "ordinal": "41",
              "role": "Timing",
              "simpleDatatype": "Char"
            }
          ],
          "description": "An interventions domain that contains concomitant and prior medications used by the subject, such as those given on an as needed basis or condition-appropriate medications.",
          "label": "Concomitant/Prior Medications",
          "name": "CM",
          "ordinal": "6"
        },
        {
          "_links": {
            "parentClass": {
              "href": "/mdr/sdtmig/3-4/classes/Interventions",
              "title": "Interventions",
              "type": "Class"
            },
            "parentProduct": {
              "href": "/mdr/sdtmig/3-4",
              "title": "Study Data Tabulation Model Implementation Guide: Human Clinical Trials",
              "type": "Implementation Guide"
            },
            "priorVersion": {
              "href": "/mdr/sdtmig/3-3/datasets/EC",
              "title": "Exposure as Collected",
              "type": "SDTM Dataset"
            },
            "self": {
              "href": "/mdr/sdtmig/3-4/datasets/EC",
              "title": "Exposure as Collected",
              "type": "SDTM Dataset"
            }
          },
          "datasetStructure": "One record per protocol-specified study treatment, collected-dosing interval, per subject, per mood",
          "datasetVariables": [
            {
              "_links": {
                "modelClassVariable": {
                  "href": "/mdr/sdtm/2-0/classes/GeneralObservations/variables/STUDYID",
                  "title": "Study Identifier",
                  "type": "SDTM Class Variable"
                },
                "parentDataset": {
                  "href": "/mdr/sdtmig/3-4/datasets/EC",
                  "title": "Exposure as Collected",
                  "type": "SDTM Dataset"
                },
                "parentProduct": {
                  "href": "/mdr/sdtmig/3-4",
                  "title": "Study Data Tabulation Model Implementation Guide: Human Clinical Trials",
                  "type": "Implementation Guide"
                },
                "priorVersion": {
                  "href": "/mdr/sdtmig/3-3/datasets/EC/variables/STUDYID",
                  "title": "Study Identifier",
                  "type": "SDTM Dataset Variable"
                },
                "rootItem": {
                  "href": "/mdr/root/sdtmig/datasets/EC/variables/STUDYID",
                  "title": "Version-agnostic anchor resource for SDTMIG variable EC.STUDYID",
                  "type": "Root Data Element"
                },
                "self": {
                  "href": "/mdr/sdtmig/3-4/datasets/EC/variables/STUDYID",
                  "title": "Study Identifier",
                  "type": "SDTM Dataset Variable"
                }
              },
              "core": "Req",
              "description": "Unique identifier for a study.",
              "label": "Study Identifier",
              "name": "STUDYID",
              "ordinal": "1",
              "role": "Identifier",
              "simpleDatatype": "Char"
            },
            {
              "_links": {
                "modelClassVariable": {
                  "href": "/mdr/sdtm/2-0/classes/GeneralObservations/variables/DOMAIN",
                  "title": "Domain Abbreviation",
                  "type": "SDTM Class Variable"
                },
                "parentDataset": {
                  "href": "/mdr/sdtmig/3-4/datasets/EC",
                  "title": "Exposure as Collected",
                  "type": "SDTM Dataset"
                },
                "parentProduct": {
                  "href": "/mdr/sdtmig/3-4",
                  "title": "Study Data Tabulation Model Implementation Guide: Human Clinical Trials",
                  "type": "Implementation Guide"
                },
                "priorVersion": {
                  "href": "/mdr/sdtmig/3-3/datasets/EC/variables/DOMAIN",
                  "title": "Domain Abbreviation",
                  "type": "SDTM Dataset Variable"
                },
                "rootItem": {
                  "href": "/mdr/root/sdtmig/datasets/EC/variables/DOMAIN",
                  "title": "Version-agnostic anchor resource for SDTMIG variable EC.DOMAIN",
                  "type": "Root Data Element"
                },
                "self": {
                  "href": "/mdr/sdtmig/3-4/datasets/EC/variables/DOMAIN",
                  "title": "Domain Abbreviation",
                  "type": "SDTM Dataset Variable"
                }
              },
              "core": "Req",
              "description": "Two-character abbreviation for the domain.",
              "label": "Domain Abbreviation",
              "name": "DOMAIN",
              "ordinal": "2",
              "role": "Identifier",
              "simpleDatatype": "Char",
              "valueList": [
                "EC"
              ]
            },
            {
              "_links": {
                "modelClassVariable": {
                  "href": "/mdr/sdtm/2-0/classes/GeneralObservations/variables/USUBJID",
                  "title": "Unique Subject Identifier",
                  "type": "SDTM Class Variable"
                },
                "parentDataset": {
                  "href": "/mdr/sdtmig/3-4/datasets/EC",
                  "title": "Exposure as Collected",
                  "type": "SDTM Dataset"
                },
                "parentProduct": {
                  "href": "/mdr/sdtmig/3-4",
                  "title": "Study Data Tabulation Model Implementation Guide: Human Clinical Trials",
                  "type": "Implementation Guide"
                },
                "priorVersion": {
                  "href": "/mdr/sdtmig/3-3/datasets/EC/variables/USUBJID",
                  "title": "Unique Subject Identifier",
                  "type": "SDTM Dataset Variable"
                },
                "rootItem": {
                  "href": "/mdr/root/sdtmig/datasets/EC/variables/USUBJID",
                  "title": "Version-agnostic anchor resource for SDTMIG variable EC.USUBJID",
                  "type": "Root Data Element"
                },
                "self": {
                  "href": "/mdr/sdtmig/3-4/datasets/EC/variables/USUBJID",
                  "title": "Unique Subject Identifier",
                  "type": "SDTM Dataset Variable"
                }
              },
              "core": "Req",
              "description": "Identifier used to uniquely identify a subject across all studies for all applications or submissions involving the product.",
              "label": "Unique Subject Identifier",
              "name": "USUBJID",
              "ordinal": "3",
              "role": "Identifier",
              "simpleDatatype": "Char"
            },
            {
              "_links": {
                "modelClassVariable": {
                  "href": "/mdr/sdtm/2-0/classes/GeneralObservations/variables/--SEQ",
                  "title": "Sequence Number",
                  "type": "SDTM Class Variable"
                },
                "parentDataset": {
                  "href": "/mdr/sdtmig/3-4/datasets/EC",
                  "title": "Exposure as Collected",
                  "type": "SDTM Dataset"
                },
                "parentProduct": {
                  "href": "/mdr/sdtmig/3-4",
                  "title": "Study Data Tabulation Model Implementation Guide: Human Clinical Trials",
                  "type": "Implementation Guide"
                },
                "priorVersion": {
                  "href": "/mdr/sdtmig/3-3/datasets/EC/variables/ECSEQ",
                  "title": "Sequence Number",
                  "type": "SDTM Dataset Variable"
                },
                "rootItem": {
                  "href": "/mdr/root/sdtmig/datasets/EC/variables/ECSEQ",
                  "title": "Version-agnostic anchor resource for SDTMIG variable EC.ECSEQ",
                  "type": "Root Data Element"
                },
                "self": {
                  "href": "/mdr/sdtmig/3-4/datasets/EC/variables/ECSEQ",
                  "title": "Sequence Number",
                  "type": "SDTM Dataset Variable"
                }
              },
              "core": "Req",
              "description": "Sequence number given to ensure uniqueness of subject records within a domain. May be any valid number.",
              "label": "Sequence Number",
              "name": "ECSEQ",
              "ordinal": "4",
              "role": "Identifier",
              "simpleDatatype": "Num"
            },
            {
              "_links": {
                "modelClassVariable": {
                  "href": "/mdr/sdtm/2-0/classes/GeneralObservations/variables/--GRPID",
                  "title": "Group ID",
                  "type": "SDTM Class Variable"
                },
                "parentDataset": {
                  "href": "/mdr/sdtmig/3-4/datasets/EC",
                  "title": "Exposure as Collected",
                  "type": "SDTM Dataset"
                },
                "parentProduct": {
                  "href": "/mdr/sdtmig/3-4",
                  "title": "Study Data Tabulation Model Implementation Guide: Human Clinical Trials",
                  "type": "Implementation Guide"
                },
                "priorVersion": {
                  "href": "/mdr/sdtmig/3-3/datasets/EC/variables/ECGRPID",
                  "title": "Group ID",
                  "type": "SDTM Dataset Variable"
                },
                "rootItem": {
                  "href": "/mdr/root/sdtmig/datasets/EC/variables/ECGRPID",
                  "title": "Version-agnostic anchor resource for SDTMIG variable EC.ECGRPID",
                  "type": "Root Data Element"
                },
                "self": {
                  "href": "/mdr/sdtmig/3-4/datasets/EC/variables/ECGRPID",
                  "title": "Group ID",
                  "type": "SDTM Dataset Variable"
                }
              },
              "core": "Perm",
              "description": "Used to tie together a block of related records in a single domain for a subject.",
              "label": "Group ID",
              "name": "ECGRPID",
              "ordinal": "5",
              "role": "Identifier",
              "simpleDatatype": "Char"
            },
            {
              "_links": {
                "modelClassVariable": {
                  "href": "/mdr/sdtm/2-0/classes/GeneralObservations/variables/--REFID",
                  "title": "Reference ID",
                  "type": "SDTM Class Variable"
                },
                "parentDataset": {
                  "href": "/mdr/sdtmig/3-4/datasets/EC",
                  "title": "Exposure as Collected",
                  "type": "SDTM Dataset"
                },
                "parentProduct": {
                  "href": "/mdr/sdtmig/3-4",
                  "title": "Study Data Tabulation Model Implementation Guide: Human Clinical Trials",
                  "type": "Implementation Guide"
                },
                "priorVersion": {
                  "href": "/mdr/sdtmig/3-3/datasets/EC/variables/ECREFID",
                  "title": "Reference ID",
                  "type": "SDTM Dataset Variable"
                },
                "rootItem": {
                  "href": "/mdr/root/sdtmig/datasets/EC/variables/ECREFID",
                  "title": "Version-agnostic anchor resource for SDTMIG variable EC.ECREFID",
                  "type": "Root Data Element"
                },
                "self": {
                  "href": "/mdr/sdtmig/3-4/datasets/EC/variables/ECREFID",
                  "title": "Reference ID",
                  "type": "SDTM Dataset Variable"
                }
              },
              "core": "Perm",
              "description": "Internal or external identifier (e.g., kit number, bottle label, vial identifier).",
              "label": "Reference ID",
              "name": "ECREFID",
              "ordinal": "6",
              "role": "Identifier",
              "simpleDatatype": "Char"
            },
            {
              "_links": {
                "modelClassVariable": {
                  "href": "/mdr/sdtm/2-0/classes/GeneralObservations/variables/--SPID",
                  "title": "Sponsor-Defined Identifier",
                  "type": "SDTM Class Variable"
                },
                "parentDataset": {
                  "href": "/mdr/sdtmig/3-4/datasets/EC",
                  "title": "Exposure as Collected",
                  "type": "SDTM Dataset"
                },
                "parentProduct": {
                  "href": "/mdr/sdtmig/3-4",
                  "title": "Study Data Tabulation Model Implementation Guide: Human Clinical Trials",
                  "type": "Implementation Guide"
                },
                "priorVersion": {
                  "href": "/mdr/sdtmig/3-3/datasets/EC/variables/ECSPID",
                  "title": "Sponsor-Defined Identifier",
                  "type": "SDTM Dataset Variable"
                },
                "rootItem": {
                  "href": "/mdr/root/sdtmig/datasets/EC/variables/ECSPID",
                  "title": "Version-agnostic anchor resource for SDTMIG variable EC.ECSPID",
                  "type": "Root Data Element"
                },
                "self": {
                  "href": "/mdr/sdtmig/3-4/datasets/EC/variables/ECSPID",
                  "title": "Sponsor-Defined Identifier",
                  "type": "SDTM Dataset Variable"
                }
              },
              "core": "Perm",
              "description": "Sponsor-defined reference number. May be preprinted on the CRF as an explicit line identifier or defined in the sponsor's operational database. Example: Line number on a CRF page.",
              "label": "Sponsor-Defined Identifier",
              "name": "ECSPID",
              "ordinal": "7",
              "role": "Identifier",
              "simpleDatatype": "Char"
            },
            {
              "_links": {
                "modelClassVariable": {
                  "href": "/mdr/sdtm/2-0/classes/GeneralObservations/variables/--LNKID",
                  "title": "Link ID",
                  "type": "SDTM Class Variable"
                },
                "parentDataset": {
                  "href": "/mdr/sdtmig/3-4/datasets/EC",
                  "title": "Exposure as Collected",
                  "type": "SDTM Dataset"
                },
                "parentProduct": {
                  "href": "/mdr/sdtmig/3-4",
                  "title": "Study Data Tabulation Model Implementation Guide: Human Clinical Trials",
                  "type": "Implementation Guide"
                },
                "priorVersion": {
                  "href": "/mdr/sdtmig/3-3/datasets/EC/variables/ECLNKID",
                  "title": "Link ID",
                  "type": "SDTM Dataset Variable"
                },
                "rootItem": {
                  "href": "/mdr/root/sdtmig/datasets/EC/variables/ECLNKID",
                  "title": "Version-agnostic anchor resource for SDTMIG variable EC.ECLNKID",
                  "type": "Root Data Element"
                },
                "self": {
                  "href": "/mdr/sdtmig/3-4/datasets/EC/variables/ECLNKID",
                  "title": "Link ID",
                  "type": "SDTM Dataset Variable"
                }
              },
              "core": "Perm",
              "description": "Identifier used to link related records across domains.",
              "label": "Link ID",
              "name": "ECLNKID",
              "ordinal": "8",
              "role": "Identifier",
              "simpleDatatype": "Char"
            },
            {
              "_links": {
                "modelClassVariable": {
                  "href": "/mdr/sdtm/2-0/classes/GeneralObservations/variables/--LNKGRP",
                  "title": "Link Group ID",
                  "type": "SDTM Class Variable"
                },
                "parentDataset": {
                  "href": "/mdr/sdtmig/3-4/datasets/EC",
                  "title": "Exposure as Collected",
                  "type": "SDTM Dataset"
                },
                "parentProduct": {
                  "href": "/mdr/sdtmig/3-4",
                  "title": "Study Data Tabulation Model Implementation Guide: Human Clinical Trials",
                  "type": "Implementation Guide"
                },
                "priorVersion": {
                  "href": "/mdr/sdtmig/3-3/datasets/EC/variables/ECLNKGRP",
                  "title": "Link Group ID",
                  "type": "SDTM Dataset Variable"
                },
                "rootItem": {
                  "href": "/mdr/root/sdtmig/datasets/EC/variables/ECLNKGRP",
                  "title": "Version-agnostic anchor resource for SDTMIG variable EC.ECLNKGRP",
                  "type": "Root Data Element"
                },
                "self": {
                  "href": "/mdr/sdtmig/3-4/datasets/EC/variables/ECLNKGRP",
                  "title": "Link Group ID",
                  "type": "SDTM Dataset Variable"
                }
              },
              "core": "Perm",
              "description": "Identifier used to link related, grouped records across domains.",
              "label": "Link Group ID",
              "name": "ECLNKGRP",
              "ordinal": "9",
              "role": "Identifier",
              "simpleDatatype": "Char"
            },
            {
              "_links": {
                "modelClassVariable": {
                  "href": "/mdr/sdtm/2-0/classes/Interventions/variables/--TRT",
                  "title": "Name of Treatment",
                  "type": "SDTM Class Variable"
                },
                "parentDataset": {
                  "href": "/mdr/sdtmig/3-4/datasets/EC",
                  "title": "Exposure as Collected",
                  "type": "SDTM Dataset"
                },
                "parentProduct": {
                  "href": "/mdr/sdtmig/3-4",
                  "title": "Study Data Tabulation Model Implementation Guide: Human Clinical Trials",
                  "type": "Implementation Guide"
                },
                "priorVersion": {
                  "href": "/mdr/sdtmig/3-3/datasets/EC/variables/ECTRT",
                  "title": "Name of Treatment",
                  "type": "SDTM Dataset Variable"
                },
                "rootItem": {
                  "href": "/mdr/root/sdtmig/datasets/EC/variables/ECTRT",
                  "title": "Version-agnostic anchor resource for SDTMIG variable EC.ECTRT",
                  "type": "Root Data Element"
                },
                "self": {
                  "href": "/mdr/sdtmig/3-4/datasets/EC/variables/ECTRT",
                  "title": "Name of Treatment",
                  "type": "SDTM Dataset Variable"
                }
              },
              "core": "Req",
              "description": "Name of the intervention treatment known to the subject and/or administrator.",
              "label": "Name of Treatment",
              "name": "ECTRT",
              "ordinal": "10",
              "role": "Topic",
              "simpleDatatype": "Char"
            },
            {
              "_links": {
                "codelist": [
                  {
                    "href": "/mdr/root/ct/sdtmct/codelists/C125923",
                    "title": "Version-agnostic anchor resource for codelist C125923",
                    "type": "Root Value Domain"
                  }
                ],
                "modelClassVariable": {
                  "href": "/mdr/sdtm/2-0/classes/Interventions/variables/--MOOD",
                  "title": "Mood",
                  "type": "SDTM Class Variable"
                },
                "parentDataset": {
                  "href": "/mdr/sdtmig/3-4/datasets/EC",
                  "title": "Exposure as Collected",
                  "type": "SDTM Dataset"
                },
                "parentProduct": {
                  "href": "/mdr/sdtmig/3-4",
                  "title": "Study Data Tabulation Model Implementation Guide: Human Clinical Trials",
                  "type": "Implementation Guide"
                },
                "priorVersion": {
                  "href": "/mdr/sdtmig/3-3/datasets/EC/variables/ECMOOD",
                  "title": "Mood",
                  "type": "SDTM Dataset Variable"
                },
                "rootItem": {
                  "href": "/mdr/root/sdtmig/datasets/EC/variables/ECMOOD",
                  "title": "Version-agnostic anchor resource for SDTMIG variable EC.ECMOOD",
                  "type": "Root Data Element"
                },
                "self": {
                  "href": "/mdr/sdtmig/3-4/datasets/EC/variables/ECMOOD",
                  "title": "Mood",
                  "type": "SDTM Dataset Variable"
                }
              },
              "core": "Perm",
              "description": "Mode or condition of the record specifying whether the intervention (activity) is intended to happen or has happened. Values align with BRIDG pillars (e.g., scheduled context, performed context) and HL7 activity moods (e.g., intent, event). Examples: \"SCHEDULED\", \"PERFORMED\".",
              "label": "Mood",
              "name": "ECMOOD",
              "ordinal": "11",
              "role": "Record Qualifier",
              "simpleDatatype": "Char"
            },
            {
              "_links": {
                "modelClassVariable": {
                  "href": "/mdr/sdtm/2-0/classes/Interventions/variables/--CAT",
                  "title": "Category",
                  "type": "SDTM Class Variable"
                },
                "parentDataset": {
                  "href": "/mdr/sdtmig/3-4/datasets/EC",
                  "title": "Exposure as Collected",
                  "type": "SDTM Dataset"
                },
                "parentProduct": {
                  "href": "/mdr/sdtmig/3-4",
                  "title": "Study Data Tabulation Model Implementation Guide: Human Clinical Trials",
                  "type": "Implementation Guide"
                },
                "priorVersion": {
                  "href": "/mdr/sdtmig/3-3/datasets/EC/variables/ECCAT",
                  "title": "Category of Treatment",
                  "type": "SDTM Dataset Variable"
                },
                "rootItem": {
                  "href": "/mdr/root/sdtmig/datasets/EC/variables/ECCAT",
                  "title": "Version-agnostic anchor resource for SDTMIG variable EC.ECCAT",
                  "type": "Root Data Element"
                },
                "self": {
                  "href": "/mdr/sdtmig/3-4/datasets/EC/variables/ECCAT",
                  "title": "Category of Treatment",
                  "type": "SDTM Dataset Variable"
                }
              },
              "core": "Perm",
              "description": "Used to define a category of related ECTRT values.",
              "label": "Category of Treatment",
              "name": "ECCAT",
              "ordinal": "12",
              "role": "Grouping Qualifier",
              "simpleDatatype": "Char"
            },
            {
              "_links": {
                "modelClassVariable": {
                  "href": "/mdr/sdtm/2-0/classes/Interventions/variables/--SCAT",
                  "title": "Subcategory",
                  "type": "SDTM Class Variable"
                },
                "parentDataset": {
                  "href": "/mdr/sdtmig/3-4/datasets/EC",
                  "title": "Exposure as Collected",
                  "type": "SDTM Dataset"
                },
                "parentProduct": {
                  "href": "/mdr/sdtmig/3-4",
                  "title": "Study Data Tabulation Model Implementation Guide: Human Clinical Trials",
                  "type": "Implementation Guide"
                },
                "priorVersion": {
                  "href": "/mdr/sdtmig/3-3/datasets/EC/variables/ECSCAT",
                  "title": "Subcategory of Treatment",
                  "type": "SDTM Dataset Variable"
                },
                "rootItem": {
                  "href": "/mdr/root/sdtmig/datasets/EC/variables/ECSCAT",
                  "title": "Version-agnostic anchor resource for SDTMIG variable EC.ECSCAT",
                  "type": "Root Data Element"
                },
                "self": {
                  "href": "/mdr/sdtmig/3-4/datasets/EC/variables/ECSCAT",
                  "title": "Subcategory of Treatment",
                  "type": "SDTM Dataset Variable"
                }
              },
              "core": "Perm",
              "description": "A further categorization of ECCAT values.",
              "label": "Subcategory of Treatment",
              "name": "ECSCAT",
              "ordinal": "13",
              "role": "Grouping Qualifier",
              "simpleDatatype": "Char"
            },
            {
              "_links": {
                "codelist": [
                  {
                    "href": "/mdr/root/ct/sdtmct/codelists/C66742",
                    "title": "Version-agnostic anchor resource for codelist C66742",
                    "type": "Root Value Domain"
                  }
                ],
                "modelClassVariable": {
                  "href": "/mdr/sdtm/2-0/classes/Interventions/variables/--PRESP",
                  "title": "Pre-Specified",
                  "type": "SDTM Class Variable"
                },
                "parentDataset": {
                  "href": "/mdr/sdtmig/3-4/datasets/EC",
                  "title": "Exposure as Collected",
                  "type": "SDTM Dataset"
                },
                "parentProduct": {
                  "href": "/mdr/sdtmig/3-4",
                  "title": "Study Data Tabulation Model Implementation Guide: Human Clinical Trials",
                  "type": "Implementation Guide"
                },
                "priorVersion": {
                  "href": "/mdr/sdtmig/3-3/datasets/EC/variables/ECPRESP",
                  "title": "Pre-Specified",
                  "type": "SDTM Dataset Variable"
                },
                "rootItem": {
                  "href": "/mdr/root/sdtmig/datasets/EC/variables/ECPRESP",
                  "title": "Version-agnostic anchor resource for SDTMIG variable EC.ECPRESP",
                  "type": "Root Data Element"
                },
                "self": {
                  "href": "/mdr/sdtmig/3-4/datasets/EC/variables/ECPRESP",
                  "title": "Pre-Specified",
                  "type": "SDTM Dataset Variable"
                }
              },
              "core": "Perm",
              "description": "Used when a specific intervention is prespecified. Values should be \"Y\" or null.",
              "label": "Pre-Specified",
              "name": "ECPRESP",
              "ordinal": "14",
              "role": "Variable Qualifier",
              "simpleDatatype": "Char"
            },
            {
              "_links": {
                "codelist": [
                  {
                    "href": "/mdr/root/ct/sdtmct/codelists/C66742",
                    "title": "Version-agnostic anchor resource for codelist C66742",
                    "type": "Root Value Domain"
                  }
                ],
                "modelClassVariable": {
                  "href": "/mdr/sdtm/2-0/classes/Interventions/variables/--OCCUR",
                  "title": "Occurrence Indicator",
                  "type": "SDTM Class Variable"
                },
                "parentDataset": {
                  "href": "/mdr/sdtmig/3-4/datasets/EC",
                  "title": "Exposure as Collected",
                  "type": "SDTM Dataset"
                },
                "parentProduct": {
                  "href": "/mdr/sdtmig/3-4",
                  "title": "Study Data Tabulation Model Implementation Guide: Human Clinical Trials",
                  "type": "Implementation Guide"
                },
                "priorVersion": {
                  "href": "/mdr/sdtmig/3-3/datasets/EC/variables/ECOCCUR",
                  "title": "Occurrence",
                  "type": "SDTM Dataset Variable"
                },
                "rootItem": {
                  "href": "/mdr/root/sdtmig/datasets/EC/variables/ECOCCUR",
                  "title": "Version-agnostic anchor resource for SDTMIG variable EC.ECOCCUR",
                  "type": "Root Data Element"
                },
                "self": {
                  "href": "/mdr/sdtmig/3-4/datasets/EC/variables/ECOCCUR",
                  "title": "Occurrence",
                  "type": "SDTM Dataset Variable"
                }
              },
              "core": "Perm",
              "description": "Used to indicate whether a treatment occurred when information about the occurrence is solicited. ECOCCUR = \"N\" when a treatment was not taken, not given, or missed.",
              "label": "Occurrence",
              "name": "ECOCCUR",
              "ordinal": "15",
              "role": "Record Qualifier",
              "simpleDatatype": "Char"
            },
            {
              "_links": {
                "modelClassVariable": {
                  "href": "/mdr/sdtm/2-0/classes/Interventions/variables/--REASOC",
                  "title": "Reason for Occur Value",
                  "type": "SDTM Class Variable"
                },
                "parentDataset": {
                  "href": "/mdr/sdtmig/3-4/datasets/EC",
                  "title": "Exposure as Collected",
                  "type": "SDTM Dataset"
                },
                "parentProduct": {
                  "href": "/mdr/sdtmig/3-4",
                  "title": "Study Data Tabulation Model Implementation Guide: Human Clinical Trials",
                  "type": "Implementation Guide"
                },
                "rootItem": {
                  "href": "/mdr/root/sdtmig/datasets/EC/variables/ECREASOC",
                  "title": "Version-agnostic anchor resource for SDTMIG variable EC.ECREASOC",
                  "type": "Root Data Element"
                },
                "self": {
                  "href": "/mdr/sdtmig/3-4/datasets/EC/variables/ECREASOC",
                  "title": "Reason for Occur Value",
                  "type": "SDTM Dataset Variable"
                }
              },
              "core": "Perm",
              "description": "The reason for the value in --OCCUR. If --OCCUR = \"N\", this is the reason the exposure did not occur.",
              "label": "Reason for Occur Value",
              "name": "ECREASOC",
              "ordinal": "16",
              "role": "Record Qualifier",
              "simpleDatatype": "Char"
            },
            {
              "_links": {
                "modelClassVariable": {
                  "href": "/mdr/sdtm/2-0/classes/Interventions/variables/--DOSE",
                  "title": "Dose",
                  "type": "SDTM Class Variable"
                },
                "parentDataset": {
                  "href": "/mdr/sdtmig/3-4/datasets/EC",
                  "title": "Exposure as Collected",
                  "type": "SDTM Dataset"
                },
                "parentProduct": {
                  "href": "/mdr/sdtmig/3-4",
                  "title": "Study Data Tabulation Model Implementation Guide: Human Clinical Trials",
                  "type": "Implementation Guide"
                },
                "priorVersion": {
                  "href": "/mdr/sdtmig/3-3/datasets/EC/variables/ECDOSE",
                  "title": "Dose",
                  "type": "SDTM Dataset Variable"
                },
                "rootItem": {
                  "href": "/mdr/root/sdtmig/datasets/EC/variables/ECDOSE",
                  "title": "Version-agnostic anchor resource for SDTMIG variable EC.ECDOSE",
