{
  "AG.STUDYID": {
    "variable": "STUDYID",
    "domain": "AG",
    "domain_label": "Procedure Agents",
    "label": "Study Identifier",
    "role": "Identifier",
    "datatype": "Char",
    "core": "Req",
    "description": "Unique identifier for a study.",
    "codelist": null,
    "sdtm_path": "/mdr/sdtmig/3-4/datasets/AG/variables/STUDYID"
  },
  "AG.DOMAIN": {
    "variable": "DOMAIN",
    "domain": "AG",
    "domain_label": "Procedure Agents",
    "label": "Domain Abbreviation",
    "role": "Identifier",
    "datatype": "Char",
    "core": "Req",
    "description": "Two-character abbreviation for the domain.",
    "codelist": null,
    "sdtm_path": "/mdr/sdtmig/3-4/datasets/AG/variables/DOMAIN"
  },
  "AG.USUBJID": {
    "variable": "USUBJID",
    "domain": "AG",
    "domain_label": "Procedure Agents",
    "label": "Unique Subject Identifier",
    "role": "Identifier",
    "datatype": "Char",
    "core": "Req",
    "description": "Identifier used to uniquely identify a subject across all studies for all applications or submissions involving the product.",
    "codelist": null,
    "sdtm_path": "/mdr/sdtmig/3-4/datasets/AG/variables/USUBJID"
  },
  "AG.AGSEQ": {
    "variable": "AGSEQ",
    "domain": "AG",
    "domain_label": "Procedure Agents",
    "label": "Sequence Number",
    "role": "Identifier",
    "datatype": "Num",
    "core": "Req",
    "description": "Sequence number given to ensure uniqueness of subject records within a domain. May be any valid number.",
    "codelist": null,
    "sdtm_path": "/mdr/sdtmig/3-4/datasets/AG/variables/AGSEQ"
  },
  "AG.AGGRPID": {
    "variable": "AGGRPID",
    "domain": "AG",
    "domain_label": "Procedure Agents",
    "label": "Group ID",
    "role": "Identifier",
    "datatype": "Char",
    "core": "Perm",
    "description": "Used to tie together a block of related records in a single domain for a subject.",
    "codelist": null,
    "sdtm_path": "/mdr/sdtmig/3-4/datasets/AG/variables/AGGRPID"
  },
  "AG.AGSPID": {
    "variable": "AGSPID",
    "domain": "AG",
    "domain_label": "Procedure Agents",
    "label": "Sponsor-Defined Identifier",
    "role": "Identifier",
    "datatype": "Char",
    "core": "Perm",
    "description": "Sponsor-defined reference number. May be preprinted on the CRF as an explicit line identifier or defined in the sponsor's operational database. Example: Line number from the procedure or test page.",
    "codelist": null,
    "sdtm_path": "/mdr/sdtmig/3-4/datasets/AG/variables/AGSPID"
  },
  "AG.AGLNKID": {
    "variable": "AGLNKID",
    "domain": "AG",
    "domain_label": "Procedure Agents",
    "label": "Link ID",
    "role": "Identifier",
    "datatype": "Char",
    "core": "Perm",
    "description": "Identifier used to link related records across domains.This may be a one-to-one or a one-to-many relationship.",
    "codelist": null,
    "sdtm_path": "/mdr/sdtmig/3-4/datasets/AG/variables/AGLNKID"
  },
  "AG.AGLNKGRP": {
    "variable": "AGLNKGRP",
    "domain": "AG",
    "domain_label": "Procedure Agents",
    "label": "Link Group ID",
    "role": "Identifier",
    "datatype": "Char",
    "core": "Perm",
    "description": "Identifier used to link related records across domains.This will usually be a many-to-one relationship.",
    "codelist": null,
    "sdtm_path": "/mdr/sdtmig/3-4/datasets/AG/variables/AGLNKGRP"
  },
  "AG.AGTRT": {
    "variable": "AGTRT",
    "domain": "AG",
    "domain_label": "Procedure Agents",
    "label": "Reported Agent Name",
    "role": "Topic",
    "datatype": "Char",
    "core": "Req",
    "description": "Verbatim medication name that is either preprinted or collected on a CRF.",
    "codelist": null,
    "sdtm_path": "/mdr/sdtmig/3-4/datasets/AG/variables/AGTRT"
  },
  "AG.AGMODIFY": {
    "variable": "AGMODIFY",
    "domain": "AG",
    "domain_label": "Procedure Agents",
    "label": "Modified Reported Name",
    "role": "Synonym Qualifier",
    "datatype": "Char",
    "core": "Perm",
    "description": "If AGTRT is modified to facilitate coding, then AGMODIFY will contain the modified text.",
    "codelist": null,
    "sdtm_path": "/mdr/sdtmig/3-4/datasets/AG/variables/AGMODIFY"
  },
  "AG.AGDECOD": {
    "variable": "AGDECOD",
    "domain": "AG",
    "domain_label": "Procedure Agents",
    "label": "Standardized Agent Name",
    "role": "Synonym Qualifier",
    "datatype": "Char",
    "core": "Perm",
    "description": "Standardized or dictionary-derived text description of AGTRT or AGMODIFY. Equivalent to the generic medication name in WHO Drug. The sponsor is expected to provide the dictionary name and version used to map the terms utilizing the external codelist element in the Define-XML document. If an intervention term does not have a decode value in the dictionary, then AGDECOD will be left blank.",
    "codelist": null,
    "sdtm_path": "/mdr/sdtmig/3-4/datasets/AG/variables/AGDECOD"
  },
  "AG.AGCAT": {
    "variable": "AGCAT",
    "domain": "AG",
    "domain_label": "Procedure Agents",
    "label": "Category for Agent",
    "role": "Grouping Qualifier",
    "datatype": "Char",
    "core": "Perm",
    "description": "Used to define a category of agent. Examples: \"CHALLENGE AGENT\", \"PET TRACER\".",
    "codelist": null,
    "sdtm_path": "/mdr/sdtmig/3-4/datasets/AG/variables/AGCAT"
  },
  "AG.AGSCAT": {
    "variable": "AGSCAT",
    "domain": "AG",
    "domain_label": "Procedure Agents",
    "label": "Subcategory for Agent",
    "role": "Grouping Qualifier",
    "datatype": "Char",
    "core": "Perm",
    "description": "Further categorization of agent.",
    "codelist": null,
    "sdtm_path": "/mdr/sdtmig/3-4/datasets/AG/variables/AGSCAT"
  },
  "AG.AGPRESP": {
    "variable": "AGPRESP",
    "domain": "AG",
    "domain_label": "Procedure Agents",
    "label": "AG Pre-Specified",
    "role": "Variable Qualifier",
    "datatype": "Char",
    "core": "Perm",
    "description": "Used to indicate whether (\"Y\"/null) information about the use of a specific agent was solicited on the CRF.",
    "codelist": "/mdr/root/ct/sdtmct/codelists/C66742",
    "sdtm_path": "/mdr/sdtmig/3-4/datasets/AG/variables/AGPRESP"
  },
  "AG.AGOCCUR": {
    "variable": "AGOCCUR",
    "domain": "AG",
    "domain_label": "Procedure Agents",
    "label": "AG Occurrence",
    "role": "Record Qualifier",
    "datatype": "Char",
    "core": "Perm",
    "description": "When the use of specific agent is solicited, AGOCCUR is used to indicate whether (\"Y\"/\"N\") use of the agent occurred. Values are null for agents not specifically solicited.",
    "codelist": "/mdr/root/ct/sdtmct/codelists/C66742",
    "sdtm_path": "/mdr/sdtmig/3-4/datasets/AG/variables/AGOCCUR"
  },
  "AG.AGSTAT": {
    "variable": "AGSTAT",
    "domain": "AG",
    "domain_label": "Procedure Agents",
    "label": "Completion Status",
    "role": "Record Qualifier",
    "datatype": "Char",
    "core": "Perm",
    "description": "Used to indicate that a question about a prespecified agent was not answered. Should be null or have a value of \"NOT DONE\".",
    "codelist": "/mdr/root/ct/sdtmct/codelists/C66789",
    "sdtm_path": "/mdr/sdtmig/3-4/datasets/AG/variables/AGSTAT"
  },
  "AG.AGREASND": {
    "variable": "AGREASND",
    "domain": "AG",
    "domain_label": "Procedure Agents",
    "label": "Reason Procedure Agent Not Collected",
    "role": "Record Qualifier",
    "datatype": "Char",
    "core": "Perm",
    "description": "Describes the reason a response to a question about the occurrence of a procedure agent was not collected. Used in conjunction with AGSTAT when value is \"NOT DONE\".",
    "codelist": null,
    "sdtm_path": "/mdr/sdtmig/3-4/datasets/AG/variables/AGREASND"
  },
  "AG.AGCLAS": {
    "variable": "AGCLAS",
    "domain": "AG",
    "domain_label": "Procedure Agents",
    "label": "Agent Class",
    "role": "Variable Qualifier",
    "datatype": "Char",
    "core": "Perm",
    "description": "Drug class. May be obtained from coding. When coding to a single class, populate with class value. If using a dictionary and coding to multiple classes, follow guidance in Section 4.2.8.3, Multiple Values for a Non-result Qualifier Variable, or omit AGCLAS.",
    "codelist": null,
    "sdtm_path": "/mdr/sdtmig/3-4/datasets/AG/variables/AGCLAS"
  },
  "AG.AGCLASCD": {
    "variable": "AGCLASCD",
    "domain": "AG",
    "domain_label": "Procedure Agents",
    "label": "Agent Class Code",
    "role": "Variable Qualifier",
    "datatype": "Char",
    "core": "Perm",
    "description": "Class code corresponding to AGCLAS. Drug class. May be obtained from coding. When coding to a single class, populate with class code. If using a dictionary and coding to multiple classes, follow guidance in Section 4.2.8.3, Multiple Values for a Non-result Qualifier Variable, or omit AGCLASCD.",
    "codelist": null,
    "sdtm_path": "/mdr/sdtmig/3-4/datasets/AG/variables/AGCLASCD"
  },
  "AG.AGDOSE": {
    "variable": "AGDOSE",
    "domain": "AG",
    "domain_label": "Procedure Agents",
    "label": "Dose per Administration",
    "role": "Record Qualifier",
    "datatype": "Num",
    "core": "Perm",
    "description": "Amount of AGTRT taken.",
    "codelist": null,
    "sdtm_path": "/mdr/sdtmig/3-4/datasets/AG/variables/AGDOSE"
  },
  "AG.AGDOSTXT": {
    "variable": "AGDOSTXT",
    "domain": "AG",
    "domain_label": "Procedure Agents",
    "label": "Dose Description",
    "role": "Record Qualifier",
    "datatype": "Char",
    "core": "Perm",
    "description": "Dosing amounts or a range of dosing information collected in text form. Units may be stored in AGDOSU. Examples: \"200-400\", \"15-20\".",
    "codelist": null,
    "sdtm_path": "/mdr/sdtmig/3-4/datasets/AG/variables/AGDOSTXT"
  },
  "AG.AGDOSU": {
    "variable": "AGDOSU",
    "domain": "AG",
    "domain_label": "Procedure Agents",
    "label": "Dose Units",
    "role": "Variable Qualifier",
    "datatype": "Char",
    "core": "Perm",
    "description": "Units for AGDOSE and AGDOSTXT. Examples: \"ng\", \"mg\", \"mg/kg\".",
    "codelist": "/mdr/root/ct/sdtmct/codelists/C71620",
    "sdtm_path": "/mdr/sdtmig/3-4/datasets/AG/variables/AGDOSU"
  },
  "AG.AGDOSFRM": {
    "variable": "AGDOSFRM",
    "domain": "AG",
    "domain_label": "Procedure Agents",
    "label": "Dose Form",
    "role": "Variable Qualifier",
    "datatype": "Char",
    "core": "Perm",
    "description": "Dose form for AGTRT. Examples: \"TABLET\", \"AEROSOL\".",
    "codelist": "/mdr/root/ct/sdtmct/codelists/C66726",
    "sdtm_path": "/mdr/sdtmig/3-4/datasets/AG/variables/AGDOSFRM"
  },
  "AG.AGDOSFRQ": {
    "variable": "AGDOSFRQ",
    "domain": "AG",
    "domain_label": "Procedure Agents",
    "label": "Dosing Frequency per Interval",
    "role": "Record Qualifier",
    "datatype": "Char",
    "core": "Perm",
    "description": "Usually expressed as the number of repeated administrations of AGDOSE within a specific time period. Example: \"ONCE\".",
    "codelist": "/mdr/root/ct/sdtmct/codelists/C71113",
    "sdtm_path": "/mdr/sdtmig/3-4/datasets/AG/variables/AGDOSFRQ"
  },
  "AG.AGROUTE": {
    "variable": "AGROUTE",
    "domain": "AG",
    "domain_label": "Procedure Agents",
    "label": "Route of Administration",
    "role": "Variable Qualifier",
    "datatype": "Char",
    "core": "Perm",
    "description": "Route of administration for AGTRT. Example: \"ORAL\".",
    "codelist": "/mdr/root/ct/sdtmct/codelists/C66729",
    "sdtm_path": "/mdr/sdtmig/3-4/datasets/AG/variables/AGROUTE"
  },
  "AG.VISITNUM": {
    "variable": "VISITNUM",
    "domain": "AG",
    "domain_label": "Procedure Agents",
    "label": "Visit Number",
    "role": "Timing",
    "datatype": "Num",
    "core": "Exp",
    "description": "1. Clinical encounter number. \\n 2. Numeric version of VISIT, used for sorting.",
    "codelist": null,
    "sdtm_path": "/mdr/sdtmig/3-4/datasets/AG/variables/VISITNUM"
  },
  "AG.VISIT": {
    "variable": "VISIT",
    "domain": "AG",
    "domain_label": "Procedure Agents",
    "label": "Visit Name",
    "role": "Timing",
    "datatype": "Char",
    "core": "Perm",
    "description": "1. Protocol-defined description of clinical encounter. \\n 2. May be used in addition to VISITNUM and/or VISITDY.",
    "codelist": null,
    "sdtm_path": "/mdr/sdtmig/3-4/datasets/AG/variables/VISIT"
  },
  "AG.VISITDY": {
    "variable": "VISITDY",
    "domain": "AG",
    "domain_label": "Procedure Agents",
    "label": "Planned Study Day of Visit",
    "role": "Timing",
    "datatype": "Num",
    "core": "Perm",
    "description": "Planned study day of the visit based upon RFSTDTC in Demographics.",
    "codelist": null,
    "sdtm_path": "/mdr/sdtmig/3-4/datasets/AG/variables/VISITDY"
  },
  "AG.TAETORD": {
    "variable": "TAETORD",
    "domain": "AG",
    "domain_label": "Procedure Agents",
    "label": "Planned Order of Element within Arm",
    "role": "Timing",
    "datatype": "Num",
    "core": "Perm",
    "description": "Number that gives the planned order of the element within the arm for the element in which the agent administration started.",
    "codelist": null,
    "sdtm_path": "/mdr/sdtmig/3-4/datasets/AG/variables/TAETORD"
  },
  "AG.EPOCH": {
    "variable": "EPOCH",
    "domain": "AG",
    "domain_label": "Procedure Agents",
    "label": "Epoch",
    "role": "Timing",
    "datatype": "Char",
    "core": "Perm",
    "description": "Epoch associated with the start date/time of the agent administration started.",
    "codelist": "/mdr/root/ct/sdtmct/codelists/C99079",
    "sdtm_path": "/mdr/sdtmig/3-4/datasets/AG/variables/EPOCH"
  },
  "AG.AGSTDTC": {
    "variable": "AGSTDTC",
    "domain": "AG",
    "domain_label": "Procedure Agents",
    "label": "Start Date/Time of Agent",
    "role": "Timing",
    "datatype": "Char",
    "core": "Perm",
    "description": "The date/time when administration of the treatment indicated by AGTRT and the dosing variables began.",
    "codelist": null,
    "sdtm_path": "/mdr/sdtmig/3-4/datasets/AG/variables/AGSTDTC"
  },
  "AG.AGENDTC": {
    "variable": "AGENDTC",
    "domain": "AG",
    "domain_label": "Procedure Agents",
    "label": "End Date/Time of Agent",
    "role": "Timing",
    "datatype": "Char",
    "core": "Perm",
    "description": "The date/time when administration of the treatment indicated by AGTRT and the dosing variables ended.",
    "codelist": null,
    "sdtm_path": "/mdr/sdtmig/3-4/datasets/AG/variables/AGENDTC"
  },
  "AG.AGSTDY": {
    "variable": "AGSTDY",
    "domain": "AG",
    "domain_label": "Procedure Agents",
    "label": "Study Day of Start of Agent",
    "role": "Timing",
    "datatype": "Num",
    "core": "Perm",
    "description": "Study day of start of agent relative to the sponsor-defined RFSTDTC.",
    "codelist": null,
    "sdtm_path": "/mdr/sdtmig/3-4/datasets/AG/variables/AGSTDY"
  },
  "AG.AGENDY": {
    "variable": "AGENDY",
    "domain": "AG",
    "domain_label": "Procedure Agents",
    "label": "Study Day of End of Agent",
    "role": "Timing",
    "datatype": "Num",
    "core": "Perm",
    "description": "Study day of end of agent relative to the sponsor-defined RFSTDTC.",
    "codelist": null,
    "sdtm_path": "/mdr/sdtmig/3-4/datasets/AG/variables/AGENDY"
  },
  "AG.AGDUR": {
    "variable": "AGDUR",
    "domain": "AG",
    "domain_label": "Procedure Agents",
    "label": "Duration of Agent",
    "role": "Timing",
    "datatype": "Char",
    "core": "Perm",
    "description": "Collected duration for an agent episode. Used only if collected on the CRF and not derived from start and end date/times.",
    "codelist": null,
    "sdtm_path": "/mdr/sdtmig/3-4/datasets/AG/variables/AGDUR"
  },
  "AG.AGSTRF": {
    "variable": "AGSTRF",
    "domain": "AG",
    "domain_label": "Procedure Agents",
    "label": "Start Relative to Reference Period",
    "role": "Timing",
    "datatype": "Char",
    "core": "Perm",
    "description": "Describes the start of the agent relative to sponsor-defined reference period. The sponsor-defined reference period is a continuous period of time defined by a discrete starting point and a discrete ending point (represented by RFSTDTC and RFENDTC in Demographics). If information such as \"PRIOR\", \"ONGOING\", or \"CONTINUING\" was collected, this information may be translated into AGSTRF. \\n Not all values of the codelist are allowable for this variable. See Section 4.4.7, Use of Relative Timing Variables.",
    "codelist": "/mdr/root/ct/sdtmct/codelists/C66728",
    "sdtm_path": "/mdr/sdtmig/3-4/datasets/AG/variables/AGSTRF"
  },
  "AG.AGENRF": {
    "variable": "AGENRF",
    "domain": "AG",
    "domain_label": "Procedure Agents",
    "label": "End Relative to Reference Period",
    "role": "Timing",
    "datatype": "Char",
    "core": "Perm",
    "description": "Describes the end of the agent relative to the sponsor-defined reference period. The sponsor-defined reference period is a continuous period of time defined by a discrete starting point and a discrete ending point (represented by RFSTDTC and RFENDTC in Demographics). If information such as \"PRIOR\", \"ONGOING\", or \"CONTINUING\" was collected, this information may be translated into AGENRF. \\n Not all values of the codelist are allowable for this variable. See Section 4.4.7, Use of Relative Timing Variables.",
    "codelist": "/mdr/root/ct/sdtmct/codelists/C66728",
    "sdtm_path": "/mdr/sdtmig/3-4/datasets/AG/variables/AGENRF"
  },
  "AG.AGSTRTPT": {
    "variable": "AGSTRTPT",
    "domain": "AG",
    "domain_label": "Procedure Agents",
    "label": "Start Relative to Reference Time Point",
    "role": "Timing",
    "datatype": "Char",
    "core": "Perm",
    "description": "Identifies the start of the agent as being before or after the sponsor-defined reference time point defined by variable AGSTTPT. \\n Not all values of the codelist are allowable for this variable. See Section 4.4.7, Use of Relative Timing Variables.",
    "codelist": "/mdr/root/ct/sdtmct/codelists/C66728",
    "sdtm_path": "/mdr/sdtmig/3-4/datasets/AG/variables/AGSTRTPT"
  },
  "AG.AGSTTPT": {
    "variable": "AGSTTPT",
    "domain": "AG",
    "domain_label": "Procedure Agents",
    "label": "Start Reference Time Point",
    "role": "Timing",
    "datatype": "Char",
    "core": "Perm",
    "description": "Description or date/time in ISO 8601 character format of the reference point referred to by AGSTRTPT. Examples: \"2003-12-15\", \"VISIT 1\".",
    "codelist": null,
    "sdtm_path": "/mdr/sdtmig/3-4/datasets/AG/variables/AGSTTPT"
  },
  "AG.AGENRTPT": {
    "variable": "AGENRTPT",
    "domain": "AG",
    "domain_label": "Procedure Agents",
    "label": "End Relative to Reference Time Point",
    "role": "Timing",
    "datatype": "Char",
    "core": "Perm",
    "description": "Identifies the end of the agent as being before or after the reference time point defined by variable AGENTPT. Identifies the end of the agent as being before or after the sponsor-defined reference time point defined by variable AGENTPT. \\n Not all values of the codelist are allowable for this variable. See Section 4.4.7, Use of Relative Timing Variables.",
    "codelist": "/mdr/root/ct/sdtmct/codelists/C66728",
    "sdtm_path": "/mdr/sdtmig/3-4/datasets/AG/variables/AGENRTPT"
  },
  "AG.AGENTPT": {
    "variable": "AGENTPT",
    "domain": "AG",
    "domain_label": "Procedure Agents",
    "label": "End Reference Time Point",
    "role": "Timing",
    "datatype": "Char",
    "core": "Perm",
    "description": "Description or date/time in ISO 8601 character format of the reference point referred to by AGENRTPT. Examples: \"2003-12-25\", \"VISIT 2\".",
    "codelist": null,
    "sdtm_path": "/mdr/sdtmig/3-4/datasets/AG/variables/AGENTPT"
  },
  "CM.STUDYID": {
    "variable": "STUDYID",
    "domain": "CM",
    "domain_label": "Concomitant/Prior Medications",
    "label": "Study Identifier",
    "role": "Identifier",
    "datatype": "Char",
    "core": "Req",
    "description": "Unique identifier for a study.",
    "codelist": null,
    "sdtm_path": "/mdr/sdtmig/3-4/datasets/CM/variables/STUDYID"
  },
  "CM.DOMAIN": {
    "variable": "DOMAIN",
    "domain": "CM",
    "domain_label": "Concomitant/Prior Medications",
    "label": "Domain Abbreviation",
    "role": "Identifier",
    "datatype": "Char",
    "core": "Req",
    "description": "Two-character abbreviation for the domain.",
    "codelist": null,
    "sdtm_path": "/mdr/sdtmig/3-4/datasets/CM/variables/DOMAIN"
  },
  "CM.USUBJID": {
    "variable": "USUBJID",
    "domain": "CM",
    "domain_label": "Concomitant/Prior Medications",
    "label": "Unique Subject Identifier",
    "role": "Identifier",
    "datatype": "Char",
    "core": "Req",
    "description": "Identifier used to uniquely identify a subject across all studies for all applications or submissions involving the product.",
    "codelist": null,
    "sdtm_path": "/mdr/sdtmig/3-4/datasets/CM/variables/USUBJID"
  },
  "CM.CMSEQ": {
    "variable": "CMSEQ",
    "domain": "CM",
    "domain_label": "Concomitant/Prior Medications",
    "label": "Sequence Number",
    "role": "Identifier",
    "datatype": "Num",
    "core": "Req",
    "description": "Sequence number to ensure uniqueness of subject records within a domain. May be any valid number.",
    "codelist": null,
    "sdtm_path": "/mdr/sdtmig/3-4/datasets/CM/variables/CMSEQ"
  },
  "CM.CMGRPID": {
    "variable": "CMGRPID",
    "domain": "CM",
    "domain_label": "Concomitant/Prior Medications",
    "label": "Group ID",
    "role": "Identifier",
    "datatype": "Char",
    "core": "Perm",
    "description": "Used to tie together a block of related records in a single domain for a subject.",
    "codelist": null,
    "sdtm_path": "/mdr/sdtmig/3-4/datasets/CM/variables/CMGRPID"
  },
  "CM.CMSPID": {
    "variable": "CMSPID",
    "domain": "CM",
    "domain_label": "Concomitant/Prior Medications",
    "label": "Sponsor-Defined Identifier",
    "role": "Identifier",
    "datatype": "Char",
    "core": "Perm",
    "description": "Sponsor-defined reference number. Example: a number preprinted on the CRF as an explicit line identifier or record identifier defined in the sponsor's operational database. Example: line number on a concomitant medication page.",
    "codelist": null,
    "sdtm_path": "/mdr/sdtmig/3-4/datasets/CM/variables/CMSPID"
  },
  "CM.CMTRT": {
    "variable": "CMTRT",
    "domain": "CM",
    "domain_label": "Concomitant/Prior Medications",
    "label": "Reported Name of Drug, Med, or Therapy",
    "role": "Topic",
    "datatype": "Char",
    "core": "Req",
    "description": "Verbatim medication name that is either preprinted or collected on a CRF.",
    "codelist": null,
    "sdtm_path": "/mdr/sdtmig/3-4/datasets/CM/variables/CMTRT"
  },
  "CM.CMMODIFY": {
    "variable": "CMMODIFY",
    "domain": "CM",
    "domain_label": "Concomitant/Prior Medications",
    "label": "Modified Reported Name",
    "role": "Synonym Qualifier",
    "datatype": "Char",
    "core": "Perm",
    "description": "If CMTRT is modified to facilitate coding, then CMMODIFY will contain the modified text.",
    "codelist": null,
    "sdtm_path": "/mdr/sdtmig/3-4/datasets/CM/variables/CMMODIFY"
  },
  "CM.CMDECOD": {
    "variable": "CMDECOD",
    "domain": "CM",
    "domain_label": "Concomitant/Prior Medications",
    "label": "Standardized Medication Name",
    "role": "Synonym Qualifier",
    "datatype": "Char",
    "core": "Perm",
    "description": "Standardized or dictionary-derived text description of CMTRT or CMMODIFY. Equivalent to the generic drug name in WHO Drug. The sponsor is expected to provide the dictionary name and version used to map the terms utilizing the external codelist element in the Define-XML document. If an intervention term does not have a decode value in the dictionary, then CMDECOD will be left blank.",
    "codelist": null,
    "sdtm_path": "/mdr/sdtmig/3-4/datasets/CM/variables/CMDECOD"
  },
  "CM.CMCAT": {
    "variable": "CMCAT",
    "domain": "CM",
    "domain_label": "Concomitant/Prior Medications",
    "label": "Category for Medication",
    "role": "Grouping Qualifier",
    "datatype": "Char",
    "core": "Perm",
    "description": "Used to define a category of medications/treatment. Examples: \"PRIOR\", \"CONCOMITANT\", \"ANTI-CANCER MEDICATION\", \"GENERAL CONMED\".",
    "codelist": null,
    "sdtm_path": "/mdr/sdtmig/3-4/datasets/CM/variables/CMCAT"
  },
  "CM.CMSCAT": {
    "variable": "CMSCAT",
    "domain": "CM",
    "domain_label": "Concomitant/Prior Medications",
    "label": "Subcategory for Medication",
    "role": "Grouping Qualifier",
    "datatype": "Char",
    "core": "Perm",
    "description": "A further categorization of medications/treatment. Examples: \"CHEMOTHERAPY\", \"HORMONAL THERAPY\", \"ALTERNATIVE THERAPY\".",
    "codelist": null,
    "sdtm_path": "/mdr/sdtmig/3-4/datasets/CM/variables/CMSCAT"
  },
  "CM.CMPRESP": {
    "variable": "CMPRESP",
    "domain": "CM",
    "domain_label": "Concomitant/Prior Medications",
    "label": "CM Pre-specified",
    "role": "Variable Qualifier",
    "datatype": "Char",
    "core": "Perm",
    "description": "Used to indicate whether (\"Y\"/null) information about the use of a specific medication was solicited on the CRF.",
    "codelist": "/mdr/root/ct/sdtmct/codelists/C66742",
    "sdtm_path": "/mdr/sdtmig/3-4/datasets/CM/variables/CMPRESP"
  },
  "CM.CMOCCUR": {
    "variable": "CMOCCUR",
    "domain": "CM",
    "domain_label": "Concomitant/Prior Medications",
    "label": "CM Occurrence",
    "role": "Record Qualifier",
    "datatype": "Char",
    "core": "Perm",
    "description": "When the use of a specific medication is solicited. CMOCCUR is used to indicate whether (\"Y\"/\"N\") use of the medication occurred. Values are null for medications not specifically solicited.",
    "codelist": "/mdr/root/ct/sdtmct/codelists/C66742",
    "sdtm_path": "/mdr/sdtmig/3-4/datasets/CM/variables/CMOCCUR"
  },
  "CM.CMSTAT": {
    "variable": "CMSTAT",
    "domain": "CM",
    "domain_label": "Concomitant/Prior Medications",
    "label": "Completion Status",
    "role": "Record Qualifier",
    "datatype": "Char",
    "core": "Perm",
    "description": "Used to indicate that a question about the occurrence of a prespecified intervention was not answered. Should be null or have a value of \"NOT DONE\".",
    "codelist": "/mdr/root/ct/sdtmct/codelists/C66789",
    "sdtm_path": "/mdr/sdtmig/3-4/datasets/CM/variables/CMSTAT"
  },
  "CM.CMREASND": {
    "variable": "CMREASND",
    "domain": "CM",
    "domain_label": "Concomitant/Prior Medications",
    "label": "Reason Medication Not Collected",
    "role": "Record Qualifier",
    "datatype": "Char",
    "core": "Perm",
    "description": "Reason not done. Used in conjunction with CMSTAT when value is \"NOT DONE\".",
    "codelist": null,
    "sdtm_path": "/mdr/sdtmig/3-4/datasets/CM/variables/CMREASND"
  },
  "CM.CMINDC": {
    "variable": "CMINDC",
    "domain": "CM",
    "domain_label": "Concomitant/Prior Medications",
    "label": "Indication",
    "role": "Record Qualifier",
    "datatype": "Char",
    "core": "Perm",
    "description": "Denotes why a medication was taken or administered. Examples: \"NAUSEA\", \"HYPERTENSION\".",
    "codelist": null,
    "sdtm_path": "/mdr/sdtmig/3-4/datasets/CM/variables/CMINDC"
  },
  "CM.CMCLAS": {
    "variable": "CMCLAS",
    "domain": "CM",
    "domain_label": "Concomitant/Prior Medications",
    "label": "Medication Class",
    "role": "Variable Qualifier",
    "datatype": "Char",
    "core": "Perm",
    "description": "Drug class. May be obtained from coding. When coding to a single class, populate with class value. If using a dictionary and coding to multiple classes, then follow Section 4.2.8.3, Multiple Values for a Non-result Qualifier Variable, or omit CMCLAS.",
    "codelist": null,
    "sdtm_path": "/mdr/sdtmig/3-4/datasets/CM/variables/CMCLAS"
  },
  "CM.CMCLASCD": {
    "variable": "CMCLASCD",
    "domain": "CM",
    "domain_label": "Concomitant/Prior Medications",
    "label": "Medication Class Code",
    "role": "Variable Qualifier",
    "datatype": "Char",
    "core": "Perm",
    "description": "Class code corresponding to CMCLAS. Drug class. May be obtained from coding. When coding to a single class, populate with class code. If using a dictionary and coding to multiple classes, then follow Section 4.2.8.3, Multiple Values for a Non-result Qualifier Variable, or omit CMCLASCD.",
    "codelist": null,
    "sdtm_path": "/mdr/sdtmig/3-4/datasets/CM/variables/CMCLASCD"
  },
  "CM.CMDOSE": {
    "variable": "CMDOSE",
    "domain": "CM",
    "domain_label": "Concomitant/Prior Medications",
    "label": "Dose per Administration",
    "role": "Record Qualifier",
    "datatype": "Num",
    "core": "Perm",
    "description": "Amount of CMTRT given. Not populated when CMDOSTXT is populated.",
    "codelist": null,
    "sdtm_path": "/mdr/sdtmig/3-4/datasets/CM/variables/CMDOSE"
  },
  "CM.CMDOSTXT": {
    "variable": "CMDOSTXT",
    "domain": "CM",
    "domain_label": "Concomitant/Prior Medications",
    "label": "Dose Description",
    "role": "Record Qualifier",
    "datatype": "Char",
    "core": "Perm",
    "description": "Dosing amounts or a range of dosing information collected in text form. Units may be stored in CMDOSU. Examples: \"200-400\", \"15-20\". Not populated when CMDOSE is populated.",
    "codelist": null,
    "sdtm_path": "/mdr/sdtmig/3-4/datasets/CM/variables/CMDOSTXT"
  },
  "CM.CMDOSU": {
    "variable": "CMDOSU",
    "domain": "CM",
    "domain_label": "Concomitant/Prior Medications",
    "label": "Dose Units",
    "role": "Variable Qualifier",
    "datatype": "Char",
    "core": "Perm",
    "description": "Units for CMDOSE, CMDOSTOT, or CMDOSTXT. Examples: \"ng\", \"mg\", \"mg/kg\".",
    "codelist": "/mdr/root/ct/sdtmct/codelists/C71620",
    "sdtm_path": "/mdr/sdtmig/3-4/datasets/CM/variables/CMDOSU"
  },
  "CM.CMDOSFRM": {
    "variable": "CMDOSFRM",
    "domain": "CM",
    "domain_label": "Concomitant/Prior Medications",
    "label": "Dose Form",
    "role": "Variable Qualifier",
    "datatype": "Char",
    "core": "Perm",
    "description": "Dose form for CMTRT. Examples: \"TABLET\", \"LOTION\".",
    "codelist": "/mdr/root/ct/sdtmct/codelists/C66726",
    "sdtm_path": "/mdr/sdtmig/3-4/datasets/CM/variables/CMDOSFRM"
  },
  "CM.CMDOSFRQ": {
    "variable": "CMDOSFRQ",
    "domain": "CM",
    "domain_label": "Concomitant/Prior Medications",
    "label": "Dosing Frequency per Interval",
    "role": "Record Qualifier",
    "datatype": "Char",
    "core": "Perm",
    "description": "Usually expressed as the number of repeated administrations of CMDOSE within a specific time period. Examples: \"BID\" (twice daily), \"Q12H\" (every 12 hours).",
    "codelist": "/mdr/root/ct/sdtmct/codelists/C71113",
    "sdtm_path": "/mdr/sdtmig/3-4/datasets/CM/variables/CMDOSFRQ"
  },
  "CM.CMDOSTOT": {
    "variable": "CMDOSTOT",
    "domain": "CM",
    "domain_label": "Concomitant/Prior Medications",
    "label": "Total Daily Dose",
    "role": "Record Qualifier",
    "datatype": "Num",
    "core": "Perm",
    "description": "Total daily dose of CMTRT using the units in CMDOSU. Used when dosing is collected as total daily dose. Total dose over a period other than day could be recorded in a separate supplemental qualifier variable.",
    "codelist": null,
    "sdtm_path": "/mdr/sdtmig/3-4/datasets/CM/variables/CMDOSTOT"
  },
  "CM.CMDOSRGM": {
    "variable": "CMDOSRGM",
    "domain": "CM",
    "domain_label": "Concomitant/Prior Medications",
    "label": "Intended Dose Regimen",
    "role": "Record Qualifier",
    "datatype": "Char",
    "core": "Perm",
    "description": "Text description of the (intended) schedule or regimen for the Intervention. Example: \"TWO WEEKS ON, TWO WEEKS OFF\".",
    "codelist": null,
    "sdtm_path": "/mdr/sdtmig/3-4/datasets/CM/variables/CMDOSRGM"
  },
  "CM.CMROUTE": {
    "variable": "CMROUTE",
    "domain": "CM",
    "domain_label": "Concomitant/Prior Medications",
    "label": "Route of Administration",
    "role": "Variable Qualifier",
    "datatype": "Char",
    "core": "Perm",
    "description": "Route of administration for the intervention. Examples: \"ORAL\", \"INTRAVENOUS\".",
    "codelist": "/mdr/root/ct/sdtmct/codelists/C66729",
    "sdtm_path": "/mdr/sdtmig/3-4/datasets/CM/variables/CMROUTE"
  },
  "CM.CMADJ": {
    "variable": "CMADJ",
    "domain": "CM",
    "domain_label": "Concomitant/Prior Medications",
    "label": "Reason for Dose Adjustment",
    "role": "Record Qualifier",
    "datatype": "Char",
    "core": "Perm",
    "description": "Describes reason or explanation of why a dose is adjusted. Examples: \"ADVERSE EVENT\", \"INSUFFICIENT RESPONSE\", \"NON-MEDICAL REASON\".",
    "codelist": null,
    "sdtm_path": "/mdr/sdtmig/3-4/datasets/CM/variables/CMADJ"
  },
  "CM.CMRSDISC": {
    "variable": "CMRSDISC",
    "domain": "CM",
    "domain_label": "Concomitant/Prior Medications",
    "label": "Reason the Intervention Was Discontinued",
    "role": "Record Qualifier",
    "datatype": "Char",
    "core": "Perm",
    "description": "When dosing of a treatment is recorded over multiple successive records, this variable is applicable only for the (chronologically) last record for the treatment.",
    "codelist": null,
    "sdtm_path": "/mdr/sdtmig/3-4/datasets/CM/variables/CMRSDISC"
  },
  "CM.TAETORD": {
    "variable": "TAETORD",
    "domain": "CM",
    "domain_label": "Concomitant/Prior Medications",
    "label": "Planned Order of Element within Arm",
    "role": "Timing",
    "datatype": "Num",
    "core": "Perm",
    "description": "Number that gives the planned order of the element within the arm for the element in which the medication administration started. Null for medications that started before study participation.",
    "codelist": null,
    "sdtm_path": "/mdr/sdtmig/3-4/datasets/CM/variables/TAETORD"
  },
  "CM.EPOCH": {
    "variable": "EPOCH",
    "domain": "CM",
    "domain_label": "Concomitant/Prior Medications",
    "label": "Epoch",
    "role": "Timing",
    "datatype": "Char",
    "core": "Perm",
    "description": "Epoch associated with the start date/time of the medication administration. Null for medications that started before study participation.",
    "codelist": "/mdr/root/ct/sdtmct/codelists/C99079",
    "sdtm_path": "/mdr/sdtmig/3-4/datasets/CM/variables/EPOCH"
  },
  "CM.CMSTDTC": {
    "variable": "CMSTDTC",
    "domain": "CM",
    "domain_label": "Concomitant/Prior Medications",
    "label": "Start Date/Time of Medication",
    "role": "Timing",
    "datatype": "Char",
    "core": "Perm",
    "description": "Start date/time of the medication administration represented in ISO 8601 character format.",
    "codelist": null,
    "sdtm_path": "/mdr/sdtmig/3-4/datasets/CM/variables/CMSTDTC"
  },
  "CM.CMENDTC": {
    "variable": "CMENDTC",
    "domain": "CM",
    "domain_label": "Concomitant/Prior Medications",
    "label": "End Date/Time of Medication",
    "role": "Timing",
    "datatype": "Char",
    "core": "Perm",
    "description": "End date/time of the medication administration represented in ISO 8601 character format.",
    "codelist": null,
    "sdtm_path": "/mdr/sdtmig/3-4/datasets/CM/variables/CMENDTC"
  },
  "CM.CMSTDY": {
    "variable": "CMSTDY",
    "domain": "CM",
    "domain_label": "Concomitant/Prior Medications",
    "label": "Study Day of Start of Medication",
    "role": "Timing",
    "datatype": "Num",
    "core": "Perm",
    "description": "Study day of start of medication relative to the sponsor-defined RFSTDTC.",
    "codelist": null,
    "sdtm_path": "/mdr/sdtmig/3-4/datasets/CM/variables/CMSTDY"
  },
  "CM.CMENDY": {
    "variable": "CMENDY",
    "domain": "CM",
    "domain_label": "Concomitant/Prior Medications",
    "label": "Study Day of End of Medication",
    "role": "Timing",
    "datatype": "Num",
    "core": "Perm",
    "description": "Study day of end of medication relative to the sponsor-defined RFSTDTC.",
    "codelist": null,
    "sdtm_path": "/mdr/sdtmig/3-4/datasets/CM/variables/CMENDY"
  },
  "CM.CMDUR": {
    "variable": "CMDUR",
    "domain": "CM",
    "domain_label": "Concomitant/Prior Medications",
    "label": "Duration",
    "role": "Timing",
    "datatype": "Char",
    "core": "Perm",
    "description": "Collected duration for a treatment episode. Used only if collected on the CRF and not derived from start and end date/times.",
    "codelist": null,
    "sdtm_path": "/mdr/sdtmig/3-4/datasets/CM/variables/CMDUR"
  },
  "CM.CMSTRF": {
    "variable": "CMSTRF",
    "domain": "CM",
    "domain_label": "Concomitant/Prior Medications",
    "label": "Start Relative to Reference Period",
    "role": "Timing",
    "datatype": "Char",
    "core": "Perm",
    "description": "Describes the start of the medication relative to sponsor-defined reference period. The sponsor-defined reference period is a continuous period of time defined by a discrete starting point and a discrete ending point (represented by RFSTDTC and RFENDTC in Demographics). If information such as \"PRIOR\" was collected, this information may be translated into CMSTRF. \\n Not all values of the codelist are allowable for this variable. See Section 4.4.7, Use of Relative Timing Variables.",
    "codelist": "/mdr/root/ct/sdtmct/codelists/C66728",
    "sdtm_path": "/mdr/sdtmig/3-4/datasets/CM/variables/CMSTRF"
  },
  "CM.CMENRF": {
    "variable": "CMENRF",
    "domain": "CM",
    "domain_label": "Concomitant/Prior Medications",
    "label": "End Relative to Reference Period",
    "role": "Timing",
    "datatype": "Char",
    "core": "Perm",
    "description": "Describes the end of the medication relative to the sponsor-defined reference period. The sponsor-defined reference period is a continuous period of time defined by a discrete starting point and a discrete ending point (represented by RFSTDTC and RFENDTC in Demographics). If information such as \"PRIOR\", \"ONGOING, or \"CONTINUING\" was collected, this information may be translated into CMENRF. \\n Not all values of the codelist are allowable for this variable. See Section 4.4.7, Use of Relative Timing Variables.",
    "codelist": "/mdr/root/ct/sdtmct/codelists/C66728",
    "sdtm_path": "/mdr/sdtmig/3-4/datasets/CM/variables/CMENRF"
  },
  "CM.CMSTRTPT": {
    "variable": "CMSTRTPT",
    "domain": "CM",
    "domain_label": "Concomitant/Prior Medications",
    "label": "Start Relative to Reference Time Point",
    "role": "Timing",
    "datatype": "Char",
    "core": "Perm",
    "description": "Identifies the start of the medication as being before or after the sponsor-defined reference time point defined by variable CMSTTPT. \\n Not all values of the codelist are allowable for this variable. See Section 4.4.7, Use of Relative Timing Variables.",
    "codelist": "/mdr/root/ct/sdtmct/codelists/C66728",
    "sdtm_path": "/mdr/sdtmig/3-4/datasets/CM/variables/CMSTRTPT"
  },
  "CM.CMSTTPT": {
    "variable": "CMSTTPT",
    "domain": "CM",
    "domain_label": "Concomitant/Prior Medications",
    "label": "Start Reference Time Point",
    "role": "Timing",
    "datatype": "Char",
    "core": "Perm",
    "description": "Description or date/time in ISO 8601 character format of the sponsor-defined reference point referred to by CMSTRTPT. Examples: \"2003-12-15\", \"VISIT 1\".",
    "codelist": null,
    "sdtm_path": "/mdr/sdtmig/3-4/datasets/CM/variables/CMSTTPT"
  },
  "CM.CMENRTPT": {
    "variable": "CMENRTPT",
    "domain": "CM",
    "domain_label": "Concomitant/Prior Medications",
    "label": "End Relative to Reference Time Point",
    "role": "Timing",
    "datatype": "Char",
    "core": "Perm",
    "description": "Identifies the end of the medication as being before or after the sponsor-defined reference time point defined by variable CMENTPT. \\n Not all values of the codelist are allowable for this variable. See Section 4.4.7, Use of Relative Timing Variables.",
    "codelist": "/mdr/root/ct/sdtmct/codelists/C66728",
    "sdtm_path": "/mdr/sdtmig/3-4/datasets/CM/variables/CMENRTPT"
  },
  "CM.CMENTPT": {
    "variable": "CMENTPT",
    "domain": "CM",
    "domain_label": "Concomitant/Prior Medications",
    "label": "End Reference Time Point",
    "role": "Timing",
    "datatype": "Char",
    "core": "Perm",
    "description": "Description or date/time in ISO 8601 character format of the sponsor-defined reference point referred to by CMENRTPT. Examples: \"2003-12-25\", \"VISIT 2\".",
    "codelist": null,
    "sdtm_path": "/mdr/sdtmig/3-4/datasets/CM/variables/CMENTPT"
  },
  "EC.STUDYID": {
    "variable": "STUDYID",
    "domain": "EC",
    "domain_label": "Exposure as Collected",
    "label": "Study Identifier",
    "role": "Identifier",
    "datatype": "Char",
    "core": "Req",
    "description": "Unique identifier for a study.",
    "codelist": null,
    "sdtm_path": "/mdr/sdtmig/3-4/datasets/EC/variables/STUDYID"
  },
  "EC.DOMAIN": {
    "variable": "DOMAIN",
    "domain": "EC",
    "domain_label": "Exposure as Collected",
    "label": "Domain Abbreviation",
    "role": "Identifier",
    "datatype": "Char",
    "core": "Req",
    "description": "Two-character abbreviation for the domain.",
    "codelist": null,
    "sdtm_path": "/mdr/sdtmig/3-4/datasets/EC/variables/DOMAIN"
  },
  "EC.USUBJID": {
    "variable": "USUBJID",
    "domain": "EC",
    "domain_label": "Exposure as Collected",
    "label": "Unique Subject Identifier",
    "role": "Identifier",
    "datatype": "Char",
    "core": "Req",
    "description": "Identifier used to uniquely identify a subject across all studies for all applications or submissions involving the product.",
    "codelist": null,
    "sdtm_path": "/mdr/sdtmig/3-4/datasets/EC/variables/USUBJID"
  },
  "EC.ECSEQ": {
    "variable": "ECSEQ",
    "domain": "EC",
    "domain_label": "Exposure as Collected",
    "label": "Sequence Number",
    "role": "Identifier",
    "datatype": "Num",
    "core": "Req",
    "description": "Sequence number given to ensure uniqueness of subject records within a domain. May be any valid number.",
    "codelist": null,
    "sdtm_path": "/mdr/sdtmig/3-4/datasets/EC/variables/ECSEQ"
  },
  "EC.ECGRPID": {
    "variable": "ECGRPID",
    "domain": "EC",
    "domain_label": "Exposure as Collected",
    "label": "Group ID",
    "role": "Identifier",
    "datatype": "Char",
    "core": "Perm",
    "description": "Used to tie together a block of related records in a single domain for a subject.",
    "codelist": null,
    "sdtm_path": "/mdr/sdtmig/3-4/datasets/EC/variables/ECGRPID"
  },
  "EC.ECREFID": {
    "variable": "ECREFID",
    "domain": "EC",
    "domain_label": "Exposure as Collected",
    "label": "Reference ID",
    "role": "Identifier",
    "datatype": "Char",
    "core": "Perm",
    "description": "Internal or external identifier (e.g., kit number, bottle label, vial identifier).",
    "codelist": null,
    "sdtm_path": "/mdr/sdtmig/3-4/datasets/EC/variables/ECREFID"
  },
  "EC.ECSPID": {
    "variable": "ECSPID",
    "domain": "EC",
    "domain_label": "Exposure as Collected",
    "label": "Sponsor-Defined Identifier",
    "role": "Identifier",
    "datatype": "Char",
    "core": "Perm",
    "description": "Sponsor-defined reference number. May be preprinted on the CRF as an explicit line identifier or defined in the sponsor's operational database. Example: Line number on a CRF page.",
    "codelist": null,
    "sdtm_path": "/mdr/sdtmig/3-4/datasets/EC/variables/ECSPID"
  },
  "EC.ECLNKID": {
    "variable": "ECLNKID",
    "domain": "EC",
    "domain_label": "Exposure as Collected",
    "label": "Link ID",
    "role": "Identifier",
    "datatype": "Char",
    "core": "Perm",
    "description": "Identifier used to link related records across domains.",
    "codelist": null,
    "sdtm_path": "/mdr/sdtmig/3-4/datasets/EC/variables/ECLNKID"
  },
  "EC.ECLNKGRP": {
    "variable": "ECLNKGRP",
    "domain": "EC",
    "domain_label": "Exposure as Collected",
    "label": "Link Group ID",
    "role": "Identifier",
    "datatype": "Char",
    "core": "Perm",
    "description": "Identifier used to link related, grouped records across domains.",
    "codelist": null,
    "sdtm_path": "/mdr/sdtmig/3-4/datasets/EC/variables/ECLNKGRP"
  },
  "EC.ECTRT": {
    "variable": "ECTRT",
    "domain": "EC",
    "domain_label": "Exposure as Collected",
    "label": "Name of Treatment",
    "role": "Topic",
    "datatype": "Char",
    "core": "Req",
    "description": "Name of the intervention treatment known to the subject and/or administrator.",
    "codelist": null,
    "sdtm_path": "/mdr/sdtmig/3-4/datasets/EC/variables/ECTRT"
  },
  "EC.ECMOOD": {
    "variable": "ECMOOD",
    "domain": "EC",
    "domain_label": "Exposure as Collected",
    "label": "Mood",
    "role": "Record Qualifier",
    "datatype": "Char",
    "core": "Perm",
    "description": "Mode or condition of the record specifying whether the intervention (activity) is intended to happen or has happened. Values align with BRIDG pillars (e.g., scheduled context, performed context) and HL7 activity moods (e.g., intent, event). Examples: \"SCHEDULED\", \"PERFORMED\".",
    "codelist": "/mdr/root/ct/sdtmct/codelists/C125923",
    "sdtm_path": "/mdr/sdtmig/3-4/datasets/EC/variables/ECMOOD"
  },
  "EC.ECCAT": {
    "variable": "ECCAT",
    "domain": "EC",
    "domain_label": "Exposure as Collected",
    "label": "Category of Treatment",
    "role": "Grouping Qualifier",
    "datatype": "Char",
    "core": "Perm",
    "description": "Used to define a category of related ECTRT values.",
    "codelist": null,
    "sdtm_path": "/mdr/sdtmig/3-4/datasets/EC/variables/ECCAT"
  },
  "EC.ECSCAT": {
    "variable": "ECSCAT",
    "domain": "EC",
    "domain_label": "Exposure as Collected",
    "label": "Subcategory of Treatment",
    "role": "Grouping Qualifier",
    "datatype": "Char",
    "core": "Perm",
    "description": "A further categorization of ECCAT values.",
    "codelist": null,
    "sdtm_path": "/mdr/sdtmig/3-4/datasets/EC/variables/ECSCAT"
  },
  "EC.ECPRESP": {
    "variable": "ECPRESP",
    "domain": "EC",
    "domain_label": "Exposure as Collected",
    "label": "Pre-Specified",
    "role": "Variable Qualifier",
    "datatype": "Char",
    "core": "Perm",
    "description": "Used when a specific intervention is prespecified. Values should be \"Y\" or null.",
    "codelist": "/mdr/root/ct/sdtmct/codelists/C66742",
    "sdtm_path": "/mdr/sdtmig/3-4/datasets/EC/variables/ECPRESP"
  },
  "EC.ECOCCUR": {
    "variable": "ECOCCUR",
    "domain": "EC",
    "domain_label": "Exposure as Collected",
    "label": "Occurrence",
    "role": "Record Qualifier",
    "datatype": "Char",
    "core": "Perm",
    "description": "Used to indicate whether a treatment occurred when information about the occurrence is solicited. ECOCCUR = \"N\" when a treatment was not taken, not given, or missed.",
    "codelist": "/mdr/root/ct/sdtmct/codelists/C66742",
    "sdtm_path": "/mdr/sdtmig/3-4/datasets/EC/variables/ECOCCUR"
  },
  "EC.ECREASOC": {
    "variable": "ECREASOC",
    "domain": "EC",
    "domain_label": "Exposure as Collected",
    "label": "Reason for Occur Value",
    "role": "Record Qualifier",
    "datatype": "Char",
    "core": "Perm",
    "description": "The reason for the value in --OCCUR. If --OCCUR = \"N\", this is the reason the exposure did not occur.",
    "codelist": null,
    "sdtm_path": "/mdr/sdtmig/3-4/datasets/EC/variables/ECREASOC"
  },
  "EC.ECDOSE": {
    "variable": "ECDOSE",
    "domain": "EC",
    "domain_label": "Exposure as Collected",
    "label": "Dose",
    "role": "Record Qualifier",
    "datatype": "Num",
    "core": "Exp",
    "description": "Amount of ECTRT when numeric. Not populated when ECDOSTXT is populated.",
    "codelist": null,
    "sdtm_path": "/mdr/sdtmig/3-4/datasets/EC/variables/ECDOSE"
  },
  "EC.ECDOSTXT": {
    "variable": "ECDOSTXT",
    "domain": "EC",
    "domain_label": "Exposure as Collected",
    "label": "Dose Description",
    "role": "Record Qualifier",
    "datatype": "Char",
    "core": "Perm",
    "description": "Amount of ECTRT when non-numeric. Dosing amounts or a range of dosing information collected in text form. Example: \"200-400\". Not populated when ECDOSE is populated.",
    "codelist": null,
    "sdtm_path": "/mdr/sdtmig/3-4/datasets/EC/variables/ECDOSTXT"
  },
  "EC.ECDOSU": {
    "variable": "ECDOSU",
    "domain": "EC",
    "domain_label": "Exposure as Collected",
    "label": "Dose Units",
    "role": "Variable Qualifier",
    "datatype": "Char",
    "core": "Exp",
    "description": "Units for ECDOSE, ECDOSTOT, or ECDOSTXT.",
    "codelist": "/mdr/root/ct/sdtmct/codelists/C71620",
    "sdtm_path": "/mdr/sdtmig/3-4/datasets/EC/variables/ECDOSU"
  },
  "EC.ECDOSFRM": {
    "variable": "ECDOSFRM",
    "domain": "EC",
    "domain_label": "Exposure as Collected",
    "label": "Dose Form",
    "role": "Variable Qualifier",
    "datatype": "Char",
    "core": "Exp",
    "description": "Dose form for ECTRT. Examples: \"TABLET\", \"LOTION\".",
    "codelist": "/mdr/root/ct/sdtmct/codelists/C66726",
    "sdtm_path": "/mdr/sdtmig/3-4/datasets/EC/variables/ECDOSFRM"
  },
  "EC.ECDOSFRQ": {
    "variable": "ECDOSFRQ",
    "domain": "EC",
    "domain_label": "Exposure as Collected",
    "label": "Dosing Frequency per Interval",
    "role": "Record Qualifier",
    "datatype": "Char",
    "core": "Perm",
    "description": "Usually expressed as the number of repeated administrations of ECDOSE within a specific time period. Examples: \"Q2H\", \"QD\", \"BID\".",
    "codelist": "/mdr/root/ct/sdtmct/codelists/C71113",
    "sdtm_path": "/mdr/sdtmig/3-4/datasets/EC/variables/ECDOSFRQ"
  },
  "EC.ECDOSTOT": {
    "variable": "ECDOSTOT",
    "domain": "EC",
    "domain_label": "Exposure as Collected",
    "label": "Total Daily Dose",
    "role": "Record Qualifier",
    "datatype": "Num",
    "core": "Perm",
    "description": "Total daily dose of ECTRT using the units in ECDOSU. Used when dosing is collected as total daily dose.",
    "codelist": null,
    "sdtm_path": "/mdr/sdtmig/3-4/datasets/EC/variables/ECDOSTOT"
  },
  "EC.ECDOSRGM": {
    "variable": "ECDOSRGM",
    "domain": "EC",
    "domain_label": "Exposure as Collected",
    "label": "Intended Dose Regimen",
    "role": "Record Qualifier",
    "datatype": "Char",
    "core": "Perm",
    "description": "Text description of the intended schedule or regimen for the Intervention. Example: \"TWO WEEKS ON\", \"TWO WEEKS OFF\".",
    "codelist": null,
    "sdtm_path": "/mdr/sdtmig/3-4/datasets/EC/variables/ECDOSRGM"
  },
  "EC.ECROUTE": {
    "variable": "ECROUTE",
    "domain": "EC",
    "domain_label": "Exposure as Collected",
    "label": "Route of Administration",
    "role": "Variable Qualifier",
    "datatype": "Char",
    "core": "Perm",
    "description": "Route of administration for the intervention. Examples: \"ORAL\", \"INTRAVENOUS\".",
    "codelist": "/mdr/root/ct/sdtmct/codelists/C66729",
    "sdtm_path": "/mdr/sdtmig/3-4/datasets/EC/variables/ECROUTE"
  },
  "EC.ECLOT": {
    "variable": "ECLOT",
    "domain": "EC",
    "domain_label": "Exposure as Collected",
    "label": "Lot Number",
    "role": "Record Qualifier",
    "datatype": "Char",
    "core": "Perm",
    "description": "Lot number of the ECTRT product.",
    "codelist": null,
    "sdtm_path": "/mdr/sdtmig/3-4/datasets/EC/variables/ECLOT"
  },
  "EC.ECLOC": {
    "variable": "ECLOC",
    "domain": "EC",
    "domain_label": "Exposure as Collected",
    "label": "Location of Dose Administration",
    "role": "Record Qualifier",
    "datatype": "Char",
    "core": "Perm",
    "description": "Specifies location of administration. Example: \"ARM\", \"LIP\".",
    "codelist": "/mdr/root/ct/sdtmct/codelists/C74456",
    "sdtm_path": "/mdr/sdtmig/3-4/datasets/EC/variables/ECLOC"
  },
  "EC.ECLAT": {
    "variable": "ECLAT",
    "domain": "EC",
    "domain_label": "Exposure as Collected",
    "label": "Laterality",
    "role": "Variable Qualifier",
    "datatype": "Char",
    "core": "Perm",
    "description": "Qualifier for anatomical location further detailing laterality of the intervention administration. Examples: \"LEFT\", \"RIGHT\".",
    "codelist": "/mdr/root/ct/sdtmct/codelists/C99073",
    "sdtm_path": "/mdr/sdtmig/3-4/datasets/EC/variables/ECLAT"
  },
  "EC.ECDIR": {
    "variable": "ECDIR",
    "domain": "EC",
    "domain_label": "Exposure as Collected",
    "label": "Directionality",
    "role": "Variable Qualifier",
    "datatype": "Char",
    "core": "Perm",
    "description": "Qualifier for anatomical location further detailing directionality. Examples: \"ANTERIOR\", \"LOWER\", \"PROXIMAL\", \"UPPER\".",
    "codelist": "/mdr/root/ct/sdtmct/codelists/C99074",
    "sdtm_path": "/mdr/sdtmig/3-4/datasets/EC/variables/ECDIR"
  },
  "EC.ECPORTOT": {
    "variable": "ECPORTOT",
    "domain": "EC",
    "domain_label": "Exposure as Collected",
    "label": "Portion or Totality",
    "role": "Variable Qualifier",
    "datatype": "Char",
    "core": "Perm",
    "description": "Qualifier for anatomical location further detailing distribution (i.e., arrangement of, apportioning of). Examples: \"ENTIRE\", \"SINGLE\", \"SEGMENT\".",
    "codelist": "/mdr/root/ct/sdtmct/codelists/C99075",
    "sdtm_path": "/mdr/sdtmig/3-4/datasets/EC/variables/ECPORTOT"
  },
  "EC.ECFAST": {
    "variable": "ECFAST",
    "domain": "EC",
    "domain_label": "Exposure as Collected",
    "label": "Fasting Status",
    "role": "Record Qualifier",
    "datatype": "Char",
    "core": "Perm",
    "description": "Indicator used to identify fasting status. Examples: \"Y\", \"N\".",
    "codelist": "/mdr/root/ct/sdtmct/codelists/C66742",
    "sdtm_path": "/mdr/sdtmig/3-4/datasets/EC/variables/ECFAST"
  },
  "EC.ECPSTRG": {
    "variable": "ECPSTRG",
    "domain": "EC",
    "domain_label": "Exposure as Collected",
    "label": "Pharmaceutical Strength",
    "role": "Record Qualifier",
    "datatype": "Num",
    "core": "Perm",
    "description": "Amount of an active ingredient expressed quantitatively per dosage unit, per unit of volume, or per unit of weight, according to the pharmaceutical dose form.",
    "codelist": null,
    "sdtm_path": "/mdr/sdtmig/3-4/datasets/EC/variables/ECPSTRG"
  },
  "EC.ECPSTRGU": {
    "variable": "ECPSTRGU",
    "domain": "EC",
    "domain_label": "Exposure as Collected",
    "label": "Pharmaceutical Strength Units",
    "role": "Variable Qualifier",
    "datatype": "Char",
    "core": "Perm",
    "description": "Unit for ECPSTRG. Examples: \"mg/TABLET\", \"mg/mL\".",
    "codelist": "/mdr/root/ct/sdtmct/codelists/C71620",
    "sdtm_path": "/mdr/sdtmig/3-4/datasets/EC/variables/ECPSTRGU"
  },
  "EC.ECADJ": {
    "variable": "ECADJ",
    "domain": "EC",
    "domain_label": "Exposure as Collected",
    "label": "Reason for Dose Adjustment",
    "role": "Record Qualifier",
    "datatype": "Char",
    "core": "Perm",
    "description": "Describes reason or explanation of why a dose is adjusted.",
    "codelist": null,
    "sdtm_path": "/mdr/sdtmig/3-4/datasets/EC/variables/ECADJ"
  },
  "EC.TAETORD": {
    "variable": "TAETORD",
    "domain": "EC",
    "domain_label": "Exposure as Collected",
    "label": "Planned Order of Element within Arm",
    "role": "Timing",
    "datatype": "Num",
    "core": "Perm",
    "description": "Number that gives the planned order of the element within the arm.",
    "codelist": null,
    "sdtm_path": "/mdr/sdtmig/3-4/datasets/EC/variables/TAETORD"
  },
  "EC.EPOCH": {
    "variable": "EPOCH",
    "domain": "EC",
    "domain_label": "Exposure as Collected",
    "label": "Epoch",
    "role": "Timing",
    "datatype": "Char",
    "core": "Perm",
    "description": "Trial epoch of the exposure as collected record. Examples: \"RUN-IN\", \"TREATMENT\".",
    "codelist": "/mdr/root/ct/sdtmct/codelists/C99079",
    "sdtm_path": "/mdr/sdtmig/3-4/datasets/EC/variables/EPOCH"
  },
  "EC.ECSTDTC": {
    "variable": "ECSTDTC",
    "domain": "EC",
    "domain_label": "Exposure as Collected",
    "label": "Start Date/Time of Treatment",
    "role": "Timing",
    "datatype": "Char",
    "core": "Exp",
    "description": "The date/time when administration of the treatment indicated by ECTRT and ECDOSE began.",
    "codelist": null,
    "sdtm_path": "/mdr/sdtmig/3-4/datasets/EC/variables/ECSTDTC"
  },
  "EC.ECENDTC": {
    "variable": "ECENDTC",
    "domain": "EC",
    "domain_label": "Exposure as Collected",
    "label": "End Date/Time of Treatment",
    "role": "Timing",
    "datatype": "Char",
    "core": "Exp",
    "description": "The date/time when administration of the treatment indicated by ECTRT and ECDOSE ended. For administrations considered given at a point in time (e.g., oral tablet, pre-filled syringe injection), where only an administration date/time is collected, ECSTDTC should be copied to ECENDTC as the standard representation.",
    "codelist": null,
    "sdtm_path": "/mdr/sdtmig/3-4/datasets/EC/variables/ECENDTC"
  },
  "EC.ECSTDY": {
    "variable": "ECSTDY",
    "domain": "EC",
    "domain_label": "Exposure as Collected",
    "label": "Study Day of Start of Treatment",
    "role": "Timing",
    "datatype": "Num",
    "core": "Perm",
    "description": "Study day of ECSTDTC relative to the sponsor-defined DM.RFSTDTC.",
    "codelist": null,
    "sdtm_path": "/mdr/sdtmig/3-4/datasets/EC/variables/ECSTDY"
  },
  "EC.ECENDY": {
    "variable": "ECENDY",
    "domain": "EC",
    "domain_label": "Exposure as Collected",
    "label": "Study Day of End of Treatment",
    "role": "Timing",
    "datatype": "Num",
    "core": "Perm",
    "description": "Study day of ECENDTC relative to the sponsor-defined DM.RFSTDTC.",
    "codelist": null,
    "sdtm_path": "/mdr/sdtmig/3-4/datasets/EC/variables/ECENDY"
  },
  "EC.ECDUR": {
    "variable": "ECDUR",
    "domain": "EC",
    "domain_label": "Exposure as Collected",
    "label": "Duration of Treatment",
    "role": "Timing",
    "datatype": "Char",
    "core": "Perm",
    "description": "Collected duration of administration. Used only if collected on the CRF and not derived from start and end date/times.",
    "codelist": null,
    "sdtm_path": "/mdr/sdtmig/3-4/datasets/EC/variables/ECDUR"
  },
  "EC.ECTPT": {
    "variable": "ECTPT",
    "domain": "EC",
    "domain_label": "Exposure as Collected",
    "label": "Planned Time Point Name",
    "role": "Timing",
    "datatype": "Char",
    "core": "Perm",
    "description": "Text description of time when administration should occur. This may be represented as an elapsed time relative to a fixed reference point, such as time of last dose. See ECTPTNUM and ECTPTREF.",
    "codelist": null,
    "sdtm_path": "/mdr/sdtmig/3-4/datasets/EC/variables/ECTPT"
  },
  "EC.ECTPTNUM": {
    "variable": "ECTPTNUM",
    "domain": "EC",
    "domain_label": "Exposure as Collected",
    "label": "Planned Time Point Number",
    "role": "Timing",
    "datatype": "Num",
    "core": "Perm",
    "description": "Numerical version of ECTPT to aid in sorting.",
    "codelist": null,
    "sdtm_path": "/mdr/sdtmig/3-4/datasets/EC/variables/ECTPTNUM"
  },
  "EC.ECELTM": {
    "variable": "ECELTM",
    "domain": "EC",
    "domain_label": "Exposure as Collected",
    "label": "Planned Elapsed Time from Time Point Ref",
    "role": "Timing",
    "datatype": "Char",
    "core": "Perm",
    "description": "Planned elapsed time relative to the planned fixed reference (ECTPTREF). This variable is useful where there are repetitive measures. Not a clock time.",
    "codelist": null,
    "sdtm_path": "/mdr/sdtmig/3-4/datasets/EC/variables/ECELTM"
  },
  "EC.ECTPTREF": {
    "variable": "ECTPTREF",
    "domain": "EC",
    "domain_label": "Exposure as Collected",
    "label": "Time Point Reference",
    "role": "Timing",
    "datatype": "Char",
    "core": "Perm",
    "description": "Name of the fixed reference point referred to by ECELTM, ECTPTNUM, and ECTPT. Examples: \"PREVIOUS DOSE\", \"PREVIOUS MEAL\".",
    "codelist": null,
    "sdtm_path": "/mdr/sdtmig/3-4/datasets/EC/variables/ECTPTREF"
  },
  "EC.ECRFTDTC": {
    "variable": "ECRFTDTC",
    "domain": "EC",
    "domain_label": "Exposure as Collected",
    "label": "Date/Time of Reference Time Point",
    "role": "Timing",
    "datatype": "Char",
    "core": "Perm",
    "description": "Date/time for a fixed reference time point defined by ECTPTREF.",
    "codelist": null,
    "sdtm_path": "/mdr/sdtmig/3-4/datasets/EC/variables/ECRFTDTC"
  },
  "EX.STUDYID": {
    "variable": "STUDYID",
    "domain": "EX",
    "domain_label": "Exposure",
    "label": "Study Identifier",
    "role": "Identifier",
    "datatype": "Char",
    "core": "Req",
    "description": "Unique identifier for a study.",
    "codelist": null,
    "sdtm_path": "/mdr/sdtmig/3-4/datasets/EX/variables/STUDYID"
  },
  "EX.DOMAIN": {
    "variable": "DOMAIN",
    "domain": "EX",
    "domain_label": "Exposure",
    "label": "Domain Abbreviation",
    "role": "Identifier",
    "datatype": "Char",
    "core": "Req",
    "description": "Two-character abbreviation for the domain.",
    "codelist": null,
    "sdtm_path": "/mdr/sdtmig/3-4/datasets/EX/variables/DOMAIN"
  },
  "EX.USUBJID": {
    "variable": "USUBJID",
    "domain": "EX",
    "domain_label": "Exposure",
    "label": "Unique Subject Identifier",
    "role": "Identifier",
    "datatype": "Char",
    "core": "Req",
    "description": "Identifier used to uniquely identify a subject across all studies for all applications or submissions involving the product.",
    "codelist": null,
    "sdtm_path": "/mdr/sdtmig/3-4/datasets/EX/variables/USUBJID"
  },
  "EX.EXSEQ": {
    "variable": "EXSEQ",
    "domain": "EX",
    "domain_label": "Exposure",
    "label": "Sequence Number",
    "role": "Identifier",
    "datatype": "Num",
    "core": "Req",
    "description": "Sequence number given to ensure uniqueness of subject records within a domain. May be any valid number.",
    "codelist": null,
    "sdtm_path": "/mdr/sdtmig/3-4/datasets/EX/variables/EXSEQ"
  },
  "EX.EXGRPID": {
    "variable": "EXGRPID",
    "domain": "EX",
    "domain_label": "Exposure",
    "label": "Group ID",
    "role": "Identifier",
    "datatype": "Char",
    "core": "Perm",
    "description": "Used to tie together a block of related records in a single domain for a subject.",
    "codelist": null,
    "sdtm_path": "/mdr/sdtmig/3-4/datasets/EX/variables/EXGRPID"
  },
  "EX.EXREFID": {
    "variable": "EXREFID",
    "domain": "EX",
    "domain_label": "Exposure",
    "label": "Reference ID",
    "role": "Identifier",
    "datatype": "Char",
    "core": "Perm",
    "description": "Internal or external identifier (e.g., kit number, bottle label, vial identifier).",
    "codelist": null,
    "sdtm_path": "/mdr/sdtmig/3-4/datasets/EX/variables/EXREFID"
  },
  "EX.EXSPID": {
    "variable": "EXSPID",
    "domain": "EX",
    "domain_label": "Exposure",
    "label": "Sponsor-Defined Identifier",
    "role": "Identifier",
    "datatype": "Char",
    "core": "Perm",
    "description": "Sponsor-defined reference number. May be preprinted on the CRF as an explicit line identifier or defined in the sponsor's operational database. Example: Line number on a CRF page.",
    "codelist": null,
    "sdtm_path": "/mdr/sdtmig/3-4/datasets/EX/variables/EXSPID"
  },
  "EX.EXLNKID": {
    "variable": "EXLNKID",
    "domain": "EX",
    "domain_label": "Exposure",
    "label": "Link ID",
    "role": "Identifier",
    "datatype": "Char",
    "core": "Perm",
    "description": "Identifier used to link related records across domains.",
    "codelist": null,
    "sdtm_path": "/mdr/sdtmig/3-4/datasets/EX/variables/EXLNKID"
  },
  "EX.EXLNKGRP": {
    "variable": "EXLNKGRP",
    "domain": "EX",
    "domain_label": "Exposure",
    "label": "Link Group ID",
    "role": "Identifier",
    "datatype": "Char",
    "core": "Perm",
    "description": "Identifier used to link related, grouped records across domains.",
    "codelist": null,
    "sdtm_path": "/mdr/sdtmig/3-4/datasets/EX/variables/EXLNKGRP"
  },
  "EX.EXTRT": {
    "variable": "EXTRT",
    "domain": "EX",
    "domain_label": "Exposure",
    "label": "Name of Treatment",
    "role": "Topic",
    "datatype": "Char",
    "core": "Req",
    "description": "Name of the protocol-specified study treatment given during the dosing period for the observation.",
    "codelist": null,
    "sdtm_path": "/mdr/sdtmig/3-4/datasets/EX/variables/EXTRT"
  },
  "EX.EXCAT": {
    "variable": "EXCAT",
    "domain": "EX",
    "domain_label": "Exposure",
    "label": "Category of Treatment",
    "role": "Grouping Qualifier",
    "datatype": "Char",
    "core": "Perm",
    "description": "Used to define a category of EXTRT values.",
    "codelist": null,
    "sdtm_path": "/mdr/sdtmig/3-4/datasets/EX/variables/EXCAT"
  },
  "EX.EXSCAT": {
    "variable": "EXSCAT",
    "domain": "EX",
    "domain_label": "Exposure",
    "label": "Subcategory of Treatment",
    "role": "Grouping Qualifier",
    "datatype": "Char",
    "core": "Perm",
    "description": "A further categorization of EXCAT values.",
    "codelist": null,
    "sdtm_path": "/mdr/sdtmig/3-4/datasets/EX/variables/EXSCAT"
  },
  "EX.EXDOSE": {
    "variable": "EXDOSE",
    "domain": "EX",
    "domain_label": "Exposure",
    "label": "Dose",
    "role": "Record Qualifier",
    "datatype": "Num",
    "core": "Exp",
    "description": "Amount of EXTRT when numeric. Not populated when EXDOSTXT is populated.",
    "codelist": null,
    "sdtm_path": "/mdr/sdtmig/3-4/datasets/EX/variables/EXDOSE"
  },
  "EX.EXDOSTXT": {
    "variable": "EXDOSTXT",
    "domain": "EX",
    "domain_label": "Exposure",
    "label": "Dose Description",
    "role": "Record Qualifier",
    "datatype": "Char",
    "core": "Perm",
    "description": "Amount of EXTRT when non-numeric. Dosing amounts or a range of dosing information collected in text form. Example: \"200-400\". Not populated when EXDOSE is populated.",
    "codelist": null,
    "sdtm_path": "/mdr/sdtmig/3-4/datasets/EX/variables/EXDOSTXT"
  },
  "EX.EXDOSU": {
    "variable": "EXDOSU",
    "domain": "EX",
    "domain_label": "Exposure",
    "label": "Dose Units",
    "role": "Variable Qualifier",
    "datatype": "Char",
    "core": "Exp",
    "description": "Units for EXDOSE, EXDOSTOT, or EXDOSTXT representing protocol-specified values. Examples: \"ng\", \"mg\", \"mg/kg\", \"mg/m2\".",
    "codelist": "/mdr/root/ct/sdtmct/codelists/C71620",
    "sdtm_path": "/mdr/sdtmig/3-4/datasets/EX/variables/EXDOSU"
  },
  "EX.EXDOSFRM": {
    "variable": "EXDOSFRM",
    "domain": "EX",
    "domain_label": "Exposure",
    "label": "Dose Form",
    "role": "Variable Qualifier",
    "datatype": "Char",
    "core": "Exp",
    "description": "Dose form for EXTRT. Examples: \"TABLET\", \"LOTION\".",
    "codelist": "/mdr/root/ct/sdtmct/codelists/C66726",
    "sdtm_path": "/mdr/sdtmig/3-4/datasets/EX/variables/EXDOSFRM"
  },
  "EX.EXDOSFRQ": {
    "variable": "EXDOSFRQ",
    "domain": "EX",
    "domain_label": "Exposure",
    "label": "Dosing Frequency per Interval",
    "role": "Record Qualifier",
    "datatype": "Char",
    "core": "Perm",
    "description": "Usually expressed as the number of repeated administrations of EXDOSE within a specific time period. Examples: \"Q2H\", \"QD\", \"BID\".",
    "codelist": "/mdr/root/ct/sdtmct/codelists/C71113",
    "sdtm_path": "/mdr/sdtmig/3-4/datasets/EX/variables/EXDOSFRQ"
  },
  "EX.EXDOSRGM": {
    "variable": "EXDOSRGM",
    "domain": "EX",
    "domain_label": "Exposure",
    "label": "Intended Dose Regimen",
    "role": "Record Qualifier",
    "datatype": "Char",
    "core": "Perm",
    "description": "Text description of the intended schedule or regimen for the Intervention. Example: \"TWO WEEKS ON, TWO WEEKS OFF\".",
    "codelist": null,
    "sdtm_path": "/mdr/sdtmig/3-4/datasets/EX/variables/EXDOSRGM"
  },
  "EX.EXROUTE": {
    "variable": "EXROUTE",
    "domain": "EX",
    "domain_label": "Exposure",
    "label": "Route of Administration",
    "role": "Variable Qualifier",
    "datatype": "Char",
    "core": "Perm",
    "description": "Route of administration for the intervention. Examples: \"ORAL\", \"INTRAVENOUS\".",
    "codelist": "/mdr/root/ct/sdtmct/codelists/C66729",
    "sdtm_path": "/mdr/sdtmig/3-4/datasets/EX/variables/EXROUTE"
  },
  "EX.EXLOT": {
    "variable": "EXLOT",
    "domain": "EX",
    "domain_label": "Exposure",
    "label": "Lot Number",
    "role": "Record Qualifier",
    "datatype": "Char",
    "core": "Perm",
    "description": "Lot number of the intervention product.",
    "codelist": null,
    "sdtm_path": "/mdr/sdtmig/3-4/datasets/EX/variables/EXLOT"
  },
  "EX.EXLOC": {
    "variable": "EXLOC",
    "domain": "EX",
    "domain_label": "Exposure",
    "label": "Location of Dose Administration",
    "role": "Record Qualifier",
    "datatype": "Char",
    "core": "Perm",
    "description": "Specifies location of administration. Examples: \"ARM\", \"LIP\".",
    "codelist": "/mdr/root/ct/sdtmct/codelists/C74456",
    "sdtm_path": "/mdr/sdtmig/3-4/datasets/EX/variables/EXLOC"
  },
  "EX.EXLAT": {
    "variable": "EXLAT",
    "domain": "EX",
    "domain_label": "Exposure",
    "label": "Laterality",
    "role": "Variable Qualifier",
    "datatype": "Char",
    "core": "Perm",
    "description": "Qualifier for anatomical location further detailing laterality of the intervention administration. Examples: \"LEFT\", \"RIGHT\".",
    "codelist": "/mdr/root/ct/sdtmct/codelists/C99073",
    "sdtm_path": "/mdr/sdtmig/3-4/datasets/EX/variables/EXLAT"
  },
  "EX.EXDIR": {
    "variable": "EXDIR",
    "domain": "EX",
    "domain_label": "Exposure",
    "label": "Directionality",
    "role": "Variable Qualifier",
    "datatype": "Char",
    "core": "Perm",
    "description": "Qualifier for anatomical location further detailing directionality. Examples: \"ANTERIOR\", \"LOWER\", \"PROXIMAL\", \"UPPER\".",
    "codelist": "/mdr/root/ct/sdtmct/codelists/C99074",
    "sdtm_path": "/mdr/sdtmig/3-4/datasets/EX/variables/EXDIR"
  },
  "EX.EXFAST": {
    "variable": "EXFAST",
    "domain": "EX",
    "domain_label": "Exposure",
    "label": "Fasting Status",
    "role": "Record Qualifier",
    "datatype": "Char",
    "core": "Perm",
    "description": "Indicator used to identify fasting status. Examples: \"Y\", \"N\".",
    "codelist": "/mdr/root/ct/sdtmct/codelists/C66742",
    "sdtm_path": "/mdr/sdtmig/3-4/datasets/EX/variables/EXFAST"
  },
  "EX.EXADJ": {
    "variable": "EXADJ",
    "domain": "EX",
    "domain_label": "Exposure",
    "label": "Reason for Dose Adjustment",
    "role": "Record Qualifier",
    "datatype": "Char",
    "core": "Perm",
    "description": "Describes reason or explanation of why a dose is adjusted.",
    "codelist": null,
    "sdtm_path": "/mdr/sdtmig/3-4/datasets/EX/variables/EXADJ"
  },
  "EX.TAETORD": {
    "variable": "TAETORD",
    "domain": "EX",
    "domain_label": "Exposure",
    "label": "Planned Order of Element within Arm",
    "role": "Timing",
    "datatype": "Num",
    "core": "Perm",
    "description": "Number that gives the planned order of the element within the arm.",
    "codelist": null,
    "sdtm_path": "/mdr/sdtmig/3-4/datasets/EX/variables/TAETORD"
  },
  "EX.EPOCH": {
    "variable": "EPOCH",
    "domain": "EX",
    "domain_label": "Exposure",
    "label": "Epoch",
    "role": "Timing",
    "datatype": "Char",
    "core": "Perm",
    "description": "Trial epoch of the exposure record. Examples: \"RUN-IN\", \"TREATMENT\".",
    "codelist": "/mdr/root/ct/sdtmct/codelists/C99079",
    "sdtm_path": "/mdr/sdtmig/3-4/datasets/EX/variables/EPOCH"
  },
  "EX.EXSTDTC": {
    "variable": "EXSTDTC",
    "domain": "EX",
    "domain_label": "Exposure",
    "label": "Start Date/Time of Treatment",
    "role": "Timing",
    "datatype": "Char",
    "core": "Exp",
    "description": "The date/time when administration of the treatment indicated by EXTRT and EXDOSE began.",
    "codelist": null,
    "sdtm_path": "/mdr/sdtmig/3-4/datasets/EX/variables/EXSTDTC"
  },
  "EX.EXENDTC": {
    "variable": "EXENDTC",
    "domain": "EX",
    "domain_label": "Exposure",
    "label": "End Date/Time of Treatment",
    "role": "Timing",
    "datatype": "Char",
    "core": "Exp",
    "description": "The date/time when administration of the treatment indicated by EXTRT and EXDOSE ended. For administrations considered given at a point in time (e.g., oral tablet, pre-filled syringe injection), where only an administration date/time is collected, EXSTDTC should be copied to EXENDTC as the standard representation.",
    "codelist": null,
    "sdtm_path": "/mdr/sdtmig/3-4/datasets/EX/variables/EXENDTC"
  },
  "EX.EXSTDY": {
    "variable": "EXSTDY",
    "domain": "EX",
    "domain_label": "Exposure",
    "label": "Study Day of Start of Treatment",
    "role": "Timing",
    "datatype": "Num",
    "core": "Perm",
    "description": "Study day of EXSTDTC relative to DM.RFSTDTC.",
    "codelist": null,
    "sdtm_path": "/mdr/sdtmig/3-4/datasets/EX/variables/EXSTDY"
  },
  "EX.EXENDY": {
    "variable": "EXENDY",
    "domain": "EX",
    "domain_label": "Exposure",
    "label": "Study Day of End of Treatment",
    "role": "Timing",
    "datatype": "Num",
    "core": "Perm",
    "description": "Study day of EXENDTC relative to DM.RFSTDTC.",
    "codelist": null,
    "sdtm_path": "/mdr/sdtmig/3-4/datasets/EX/variables/EXENDY"
  },
  "EX.EXDUR": {
    "variable": "EXDUR",
    "domain": "EX",
    "domain_label": "Exposure",
    "label": "Duration of Treatment",
    "role": "Timing",
    "datatype": "Char",
    "core": "Perm",
    "description": "Collected duration of administration. Used only if collected on the CRF and not derived from start and end date/times.",
    "codelist": null,
    "sdtm_path": "/mdr/sdtmig/3-4/datasets/EX/variables/EXDUR"
  },
  "EX.EXTPT": {
    "variable": "EXTPT",
    "domain": "EX",
    "domain_label": "Exposure",
    "label": "Planned Time Point Name",
    "role": "Timing",
    "datatype": "Char",
    "core": "Perm",
    "description": "Text description of time when administration should occur. This may be represented as an elapsed time relative to a fixed reference point, such as time of last dose. See EXTPTNUM and EXTPTREF.",
    "codelist": null,
    "sdtm_path": "/mdr/sdtmig/3-4/datasets/EX/variables/EXTPT"
  },
  "EX.EXTPTNUM": {
    "variable": "EXTPTNUM",
    "domain": "EX",
    "domain_label": "Exposure",
    "label": "Planned Time Point Number",
    "role": "Timing",
    "datatype": "Num",
    "core": "Perm",
    "description": "Numerical version of EXTPT to aid in sorting.",
    "codelist": null,
    "sdtm_path": "/mdr/sdtmig/3-4/datasets/EX/variables/EXTPTNUM"
  },
  "EX.EXELTM": {
    "variable": "EXELTM",
    "domain": "EX",
    "domain_label": "Exposure",
    "label": "Planned Elapsed Time from Time Point Ref",
    "role": "Timing",
    "datatype": "Char",
    "core": "Perm",
    "description": "Planned elapsed time relative to the planned fixed reference (EXTPTREF). This variable is useful where there are repetitive measures. Not a clock time.",
    "codelist": null,
    "sdtm_path": "/mdr/sdtmig/3-4/datasets/EX/variables/EXELTM"
  },
  "EX.EXTPTREF": {
    "variable": "EXTPTREF",
    "domain": "EX",
    "domain_label": "Exposure",
    "label": "Time Point Reference",
    "role": "Timing",
    "datatype": "Char",
    "core": "Perm",
    "description": "Name of the fixed reference point referred to by EXELTM, EXTPTNUM, and EXTPT. Examples: PREVIOUS DOSE, PREVIOUS MEAL.",
    "codelist": null,
    "sdtm_path": "/mdr/sdtmig/3-4/datasets/EX/variables/EXTPTREF"
  },
  "EX.EXRFTDTC": {
    "variable": "EXRFTDTC",
    "domain": "EX",
    "domain_label": "Exposure",
    "label": "Date/Time of Reference Time Point",
    "role": "Timing",
    "datatype": "Char",
    "core": "Perm",
    "description": "Date/time for a fixed reference time point defined by EXTPTREF.",
    "codelist": null,
    "sdtm_path": "/mdr/sdtmig/3-4/datasets/EX/variables/EXRFTDTC"
  },
  "ML.STUDYID": {
    "variable": "STUDYID",
    "domain": "ML",
    "domain_label": "Meal Data",
    "label": "Study Identifier",
    "role": "Identifier",
    "datatype": "Char",
    "core": "Req",
    "description": "Unique identifier for a study.",
    "codelist": null,
    "sdtm_path": "/mdr/sdtmig/3-4/datasets/ML/variables/STUDYID"
  },
  "ML.DOMAIN": {
    "variable": "DOMAIN",
    "domain": "ML",
    "domain_label": "Meal Data",
    "label": "Domain Abbreviation",
    "role": "Identifier",
    "datatype": "Char",
    "core": "Req",
    "description": "Two-character abbreviation for the domain.",
    "codelist": null,
    "sdtm_path": "/mdr/sdtmig/3-4/datasets/ML/variables/DOMAIN"
  },
  "ML.USUBJID": {
    "variable": "USUBJID",
    "domain": "ML",
    "domain_label": "Meal Data",
    "label": "Unique Subject Identifier",
    "role": "Identifier",
    "datatype": "Char",
    "core": "Req",
    "description": "Identifier used to uniquely identify a subject across all studies for all applications or submissions involving the product.",
    "codelist": null,
    "sdtm_path": "/mdr/sdtmig/3-4/datasets/ML/variables/USUBJID"
  },
  "ML.MLSEQ": {
    "variable": "MLSEQ",
    "domain": "ML",
    "domain_label": "Meal Data",
    "label": "Sequence Number",
    "role": "Identifier",
    "datatype": "Num",
    "core": "Req",
    "description": "Sequence number given to ensure uniqueness of subject records within a domain. May be any valid number.",
    "codelist": null,
    "sdtm_path": "/mdr/sdtmig/3-4/datasets/ML/variables/MLSEQ"
  },
  "ML.MLGRPID": {
    "variable": "MLGRPID",
    "domain": "ML",
    "domain_label": "Meal Data",
    "label": "Group ID",
    "role": "Identifier",
    "datatype": "Char",
    "core": "Perm",
    "description": "Used to tie together a block of related records in a single domain for a subject.",
    "codelist": null,
    "sdtm_path": "/mdr/sdtmig/3-4/datasets/ML/variables/MLGRPID"
  },
  "ML.MLSPID": {
    "variable": "MLSPID",
    "domain": "ML",
    "domain_label": "Meal Data",
    "label": "Sponsor-Defined Identifier",
    "role": "Identifier",
    "datatype": "Char",
    "core": "Perm",
    "description": "Sponsor-defined reference number. Examples: a number preprinted on the CRF as an explicit line identifier, record identifier defined in the sponsor's operational database.",
    "codelist": null,
    "sdtm_path": "/mdr/sdtmig/3-4/datasets/ML/variables/MLSPID"
  },
  "ML.MLTRT": {
    "variable": "MLTRT",
    "domain": "ML",
    "domain_label": "Meal Data",
    "label": "Name of Meal",
    "role": "Topic",
    "datatype": "Char",
    "core": "Req",
    "description": "Verbatim food product name that is either preprinted or collected on a CRF.",
    "codelist": null,
    "sdtm_path": "/mdr/sdtmig/3-4/datasets/ML/variables/MLTRT"
  },
  "ML.MLCAT": {
    "variable": "MLCAT",
    "domain": "ML",
    "domain_label": "Meal Data",
    "label": "Category for Meal",
    "role": "Grouping Qualifier",
    "datatype": "Char",
    "core": "Perm",
    "description": "Used to define a category of MLTRT values.",
    "codelist": null,
    "sdtm_path": "/mdr/sdtmig/3-4/datasets/ML/variables/MLCAT"
  },
  "ML.MLSCAT": {
    "variable": "MLSCAT",
    "domain": "ML",
    "domain_label": "Meal Data",
    "label": "Subcategory for Meal",
    "role": "Grouping Qualifier",
    "datatype": "Char",
    "core": "Perm",
    "description": "Used to define a further categorization of MLCAT values.",
    "codelist": null,
    "sdtm_path": "/mdr/sdtmig/3-4/datasets/ML/variables/MLSCAT"
  },
  "ML.MLPRESP": {
    "variable": "MLPRESP",
    "domain": "ML",
    "domain_label": "Meal Data",
    "label": "ML Pre-specified",
    "role": "Variable Qualifier",
    "datatype": "Char",
    "core": "Perm",
    "description": "Used when a specific meal is prespecified on a CRF. Values should be \"Y\" or null.",
    "codelist": "/mdr/root/ct/sdtmct/codelists/C66742",
    "sdtm_path": "/mdr/sdtmig/3-4/datasets/ML/variables/MLPRESP"
  },
  "ML.MLOCCUR": {
    "variable": "MLOCCUR",
    "domain": "ML",
    "domain_label": "Meal Data",
    "label": "ML Occurrence",
    "role": "Record Qualifier",
    "datatype": "Char",
    "core": "Perm",
    "description": "Used to record whether a prespecified meal occurred when information about the occurrence of a specific meal is solicited.",
    "codelist": "/mdr/root/ct/sdtmct/codelists/C66742",
    "sdtm_path": "/mdr/sdtmig/3-4/datasets/ML/variables/MLOCCUR"
  },
  "ML.MLSTAT": {
    "variable": "MLSTAT",
    "domain": "ML",
    "domain_label": "Meal Data",
    "label": "Completion Status",
    "role": "Record Qualifier",
    "datatype": "Char",
    "core": "Perm",
    "description": "Used to indicate when a question about the occurrence of a prespecified meal was not answered. Should be null or have a value of \"NOT DONE\".",
    "codelist": "/mdr/root/ct/sdtmct/codelists/C66789",
    "sdtm_path": "/mdr/sdtmig/3-4/datasets/ML/variables/MLSTAT"
  },
  "ML.MLREASND": {
    "variable": "MLREASND",
    "domain": "ML",
    "domain_label": "Meal Data",
    "label": "Reason Meal Not Collected",
    "role": "Record Qualifier",
    "datatype": "Char",
    "core": "Perm",
    "description": "Describes the reason a response to a question about the occurrence of a meal was not collected. Used in conjunction with MLSTAT when value is \"NOT DONE\".",
    "codelist": null,
    "sdtm_path": "/mdr/sdtmig/3-4/datasets/ML/variables/MLREASND"
  },
  "ML.MLDOSE": {
    "variable": "MLDOSE",
    "domain": "ML",
    "domain_label": "Meal Data",
    "label": "Dose",
    "role": "Record Qualifier",
    "datatype": "Num",
    "core": "Perm",
    "description": "Amount of MLTRT consumed. Not populated when MLDOSTXT is populated.",
    "codelist": null,
    "sdtm_path": "/mdr/sdtmig/3-4/datasets/ML/variables/MLDOSE"
  },
  "ML.MLDOSTXT": {
    "variable": "MLDOSTXT",
    "domain": "ML",
    "domain_label": "Meal Data",
    "label": "Dose Description",
    "role": "Record Qualifier",
    "datatype": "Char",
    "core": "Perm",
    "description": "Amount description of MLTRT consumed, collected in text form. Not populated when MLDOSE is populated. Examples: \"<1 per day\", \"200-400\".",
    "codelist": null,
    "sdtm_path": "/mdr/sdtmig/3-4/datasets/ML/variables/MLDOSTXT"
  },
  "ML.MLDOSU": {
    "variable": "MLDOSU",
    "domain": "ML",
    "domain_label": "Meal Data",
    "label": "Dose Units",
    "role": "Variable Qualifier",
    "datatype": "Char",
    "core": "Perm",
    "description": "Units for MLDOSE, MLDOSTOT, or MLDOSTXT.",
    "codelist": "/mdr/root/ct/sdtmct/codelists/C71620",
    "sdtm_path": "/mdr/sdtmig/3-4/datasets/ML/variables/MLDOSU"
  },
  "ML.MLDOSFRM": {
    "variable": "MLDOSFRM",
    "domain": "ML",
    "domain_label": "Meal Data",
    "label": "Dose Form",
    "role": "Variable Qualifier",
    "datatype": "Char",
    "core": "Perm",
    "description": "Dosage form for MLTRT. Example: \"BAR, CHEWABLE\".",
    "codelist": "/mdr/root/ct/sdtmct/codelists/C66726",
    "sdtm_path": "/mdr/sdtmig/3-4/datasets/ML/variables/MLDOSFRM"
  },
  "ML.VISITNUM": {
    "variable": "VISITNUM",
    "domain": "ML",
    "domain_label": "Meal Data",
    "label": "Visit Number",
    "role": "Timing",
    "datatype": "Num",
    "core": "Perm",
    "description": "Clinical encounter number. Numeric version of VISIT, used for sorting.",
    "codelist": null,
    "sdtm_path": "/mdr/sdtmig/3-4/datasets/ML/variables/VISITNUM"
  },
  "ML.VISIT": {
    "variable": "VISIT",
    "domain": "ML",
    "domain_label": "Meal Data",
    "label": "Visit Name",
    "role": "Timing",
    "datatype": "Char",
    "core": "Perm",
    "description": "Protocol-defined description of a clinical encounter.",
    "codelist": null,
    "sdtm_path": "/mdr/sdtmig/3-4/datasets/ML/variables/VISIT"
  },
  "ML.VISITDY": {
    "variable": "VISITDY",
    "domain": "ML",
    "domain_label": "Meal Data",
    "label": "Planned Study Day of Visit",
    "role": "Timing",
    "datatype": "Num",
    "core": "Perm",
    "description": "Planned study day of VISIT. Should be an integer.",
    "codelist": null,
    "sdtm_path": "/mdr/sdtmig/3-4/datasets/ML/variables/VISITDY"
  },
  "ML.TAETORD": {
    "variable": "TAETORD",
    "domain": "ML",
    "domain_label": "Meal Data",
    "label": "Planned Order of Element within Arm",
    "role": "Timing",
    "datatype": "Num",
    "core": "Perm",
    "description": "Number that gives the planned order of the element within the arm for the element in which the meal started.",
    "codelist": null,
    "sdtm_path": "/mdr/sdtmig/3-4/datasets/ML/variables/TAETORD"
  },
  "ML.EPOCH": {
    "variable": "EPOCH",
    "domain": "ML",
    "domain_label": "Meal Data",
    "label": "Epoch",
    "role": "Timing",
    "datatype": "Char",
    "core": "Perm",
    "description": "Epoch associated with the start date/time of the meal.",
    "codelist": "/mdr/root/ct/sdtmct/codelists/C99079",
    "sdtm_path": "/mdr/sdtmig/3-4/datasets/ML/variables/EPOCH"
  },
  "ML.MLDTC": {
    "variable": "MLDTC",
    "domain": "ML",
    "domain_label": "Meal Data",
    "label": "Date/Time of Collection",
    "role": "Timing",
    "datatype": "Char",
    "core": "Perm",
    "description": "Collection date and time of the meal represented in ISO 8601 character format.",
    "codelist": null,
    "sdtm_path": "/mdr/sdtmig/3-4/datasets/ML/variables/MLDTC"
  },
  "ML.MLSTDTC": {
    "variable": "MLSTDTC",
    "domain": "ML",
    "domain_label": "Meal Data",
    "label": "Start Date/Time of Meal",
    "role": "Timing",
    "datatype": "Char",
    "core": "Perm",
    "description": "Start date/time of the meal represented in ISO 8601 character format.",
    "codelist": null,
    "sdtm_path": "/mdr/sdtmig/3-4/datasets/ML/variables/MLSTDTC"
  },
  "ML.MLENDTC": {
    "variable": "MLENDTC",
    "domain": "ML",
    "domain_label": "Meal Data",
    "label": "End Date/Time of Meal",
    "role": "Timing",
    "datatype": "Char",
    "core": "Perm",
    "description": "End date/time of the meal represented in ISO 8601 character format.",
    "codelist": null,
    "sdtm_path": "/mdr/sdtmig/3-4/datasets/ML/variables/MLENDTC"
  },
  "ML.MLDY": {
    "variable": "MLDY",
    "domain": "ML",
    "domain_label": "Meal Data",
    "label": "Study Day of Visit/Collection/Exam",
    "role": "Timing",
    "datatype": "Num",
    "core": "Perm",
    "description": "Actual study day of the visit/collection expressed in integer days relative to the sponsor-defined RFSTDTC in Demographics.",
    "codelist": null,
    "sdtm_path": "/mdr/sdtmig/3-4/datasets/ML/variables/MLDY"
  },
  "ML.MLSTDY": {
    "variable": "MLSTDY",
    "domain": "ML",
    "domain_label": "Meal Data",
    "label": "Study Day of Start of Meal",
    "role": "Timing",
    "datatype": "Num",
    "core": "Perm",
    "description": "Actual study day of start of the meal expressed in integer days relative to sponsor-defined RFSTDTC in Demographics.",
    "codelist": null,
    "sdtm_path": "/mdr/sdtmig/3-4/datasets/ML/variables/MLSTDY"
  },
  "ML.MLENDY": {
    "variable": "MLENDY",
    "domain": "ML",
    "domain_label": "Meal Data",
    "label": "Study Day of End of Meal",
    "role": "Timing",
    "datatype": "Num",
    "core": "Perm",
    "description": "Actual study day of end of the meal expressed in integer days relative to the sponsor-defined RFSTDTC in Demographics.",
    "codelist": null,
    "sdtm_path": "/mdr/sdtmig/3-4/datasets/ML/variables/MLENDY"
  },
  "ML.MLDUR": {
    "variable": "MLDUR",
    "domain": "ML",
    "domain_label": "Meal Data",
    "label": "Duration of Meal",
    "role": "Timing",
    "datatype": "Char",
    "core": "Perm",
    "description": "Collected duration of the meal represented in ISO 8601 character format. Used only if collected on the CRF and not derived.",
    "codelist": null,
    "sdtm_path": "/mdr/sdtmig/3-4/datasets/ML/variables/MLDUR"
  },
  "ML.MLTPT": {
    "variable": "MLTPT",
    "domain": "ML",
    "domain_label": "Meal Data",
    "label": "Planned Time Point Name",
    "role": "Timing",
    "datatype": "Char",
    "core": "Perm",
    "description": "Text description of time when a measurement or observation should be taken as defined in the protocol. This may be represented as an elapsed time relative to a fixed reference point. See MLTPTNUM and MLTPTREF.",
    "codelist": null,
    "sdtm_path": "/mdr/sdtmig/3-4/datasets/ML/variables/MLTPT"
  },
  "ML.MLTPTNUM": {
    "variable": "MLTPTNUM",
    "domain": "ML",
    "domain_label": "Meal Data",
    "label": "Planned Time Point Number",
    "role": "Timing",
    "datatype": "Num",
    "core": "Perm",
    "description": "Numeric version of planned time point used in sorting.",
    "codelist": null,
    "sdtm_path": "/mdr/sdtmig/3-4/datasets/ML/variables/MLTPTNUM"
  },
  "ML.MLELTM": {
    "variable": "MLELTM",
    "domain": "ML",
    "domain_label": "Meal Data",
    "label": "Planned Elapsed Time from Time Point Ref",
    "role": "Timing",
    "datatype": "Char",
    "core": "Perm",
    "description": "Planned elapsed time (in ISO 8601) relative to the planned fixed reference (MLTPTREF). This variable is useful when there are repetitive measures. Not a clock time or a date/time variable. Represented as an ISO 8601 duration.",
    "codelist": null,
    "sdtm_path": "/mdr/sdtmig/3-4/datasets/ML/variables/MLELTM"
  },
  "ML.MLTPTREF": {
    "variable": "MLTPTREF",
    "domain": "ML",
    "domain_label": "Meal Data",
    "label": "Time Point Reference",
    "role": "Timing",
    "datatype": "Char",
    "core": "Perm",
    "description": "Description of the fixed reference point referred to by MLELTM, MLTPTNUM, and MLTPT.",
    "codelist": null,
    "sdtm_path": "/mdr/sdtmig/3-4/datasets/ML/variables/MLTPTREF"
  },
  "ML.MLRFTDTC": {
    "variable": "MLRFTDTC",
    "domain": "ML",
    "domain_label": "Meal Data",
    "label": "Date/Time of Reference Time Point",
    "role": "Timing",
    "datatype": "Char",
    "core": "Perm",
    "description": "Date/time for a fixed reference time point defined by MLTPTREF in ISO 8601 character format.",
    "codelist": null,
    "sdtm_path": "/mdr/sdtmig/3-4/datasets/ML/variables/MLRFTDTC"
  },
  "ML.MIDS": {
    "variable": "MIDS",
    "domain": "ML",
    "domain_label": "Meal Data",
    "label": "Disease Milestone Instance Name",
    "role": "Timing",
    "datatype": "Char",
    "core": "Perm",
    "description": "The name of a specific instance of a disease milestone type (MIDSTYPE) described in the Trial Disease Milestones dataset. This should be unique within a subject. Used only in conjunction with RELMIDS and MIDSDTC.",
    "codelist": null,
    "sdtm_path": "/mdr/sdtmig/3-4/datasets/ML/variables/MIDS"
  },
  "ML.RELMIDS": {
    "variable": "RELMIDS",
    "domain": "ML",
    "domain_label": "Meal Data",
    "label": "Temporal Relation to Milestone Instance",
    "role": "Timing",
    "datatype": "Char",
    "core": "Perm",
    "description": "The temporal relationship of the observation to the disease milestone instance name in MIDS. Examples: \"IMMEDIATELY BEFORE\", \"AT TIME OF\", \"AFTER\".",
    "codelist": null,
    "sdtm_path": "/mdr/sdtmig/3-4/datasets/ML/variables/RELMIDS"
  },
  "ML.MIDSDTC": {
    "variable": "MIDSDTC",
    "domain": "ML",
    "domain_label": "Meal Data",
    "label": "Disease Milestone Instance Date/Time",
    "role": "Timing",
    "datatype": "Char",
    "core": "Perm",
    "description": "The start date/time of the disease milestone instance name in MIDS, in ISO 8601 format.",
    "codelist": null,
    "sdtm_path": "/mdr/sdtmig/3-4/datasets/ML/variables/MIDSDTC"
  },
  "PR.STUDYID": {
    "variable": "STUDYID",
    "domain": "PR",
    "domain_label": "Procedures",
    "label": "Study Identifier",
    "role": "Identifier",
    "datatype": "Char",
    "core": "Req",
    "description": "Unique identifier for a study.",
    "codelist": null,
    "sdtm_path": "/mdr/sdtmig/3-4/datasets/PR/variables/STUDYID"
  },
  "PR.DOMAIN": {
    "variable": "DOMAIN",
    "domain": "PR",
    "domain_label": "Procedures",
    "label": "Domain Abbreviation",
    "role": "Identifier",
    "datatype": "Char",
    "core": "Req",
    "description": "Two-character abbreviation for the domain.",
    "codelist": null,
    "sdtm_path": "/mdr/sdtmig/3-4/datasets/PR/variables/DOMAIN"
  },
  "PR.USUBJID": {
    "variable": "USUBJID",
    "domain": "PR",
    "domain_label": "Procedures",
    "label": "Unique Subject Identifier",
    "role": "Identifier",
    "datatype": "Char",
    "core": "Req",
    "description": "Identifier used to uniquely identify a subject across all studies for all applications or submissions involving the product.",
    "codelist": null,
    "sdtm_path": "/mdr/sdtmig/3-4/datasets/PR/variables/USUBJID"
  },
  "PR.PRSEQ": {
    "variable": "PRSEQ",
    "domain": "PR",
    "domain_label": "Procedures",
    "label": "Sequence Number",
    "role": "Identifier",
    "datatype": "Num",
    "core": "Req",
    "description": "Sequence number given to ensure uniqueness of subject records within a domain. May be any valid number.",
    "codelist": null,
    "sdtm_path": "/mdr/sdtmig/3-4/datasets/PR/variables/PRSEQ"
  },
  "PR.PRGRPID": {
    "variable": "PRGRPID",
    "domain": "PR",
    "domain_label": "Procedures",
    "label": "Group ID",
    "role": "Identifier",
    "datatype": "Char",
    "core": "Perm",
    "description": "Used to link together a block of related records within a subject in a domain.",
    "codelist": null,
    "sdtm_path": "/mdr/sdtmig/3-4/datasets/PR/variables/PRGRPID"
  },
  "PR.PRSPID": {
    "variable": "PRSPID",
    "domain": "PR",
    "domain_label": "Procedures",
    "label": "Sponsor-Defined Identifier",
    "role": "Identifier",
    "datatype": "Char",
    "core": "Perm",
    "description": "Sponsor-defined identifier. Example: preprinted line identifier on a CRF, record identifier defined in the sponsor's operational database.",
    "codelist": null,
    "sdtm_path": "/mdr/sdtmig/3-4/datasets/PR/variables/PRSPID"
  },
  "PR.PRLNKID": {
    "variable": "PRLNKID",
    "domain": "PR",
    "domain_label": "Procedures",
    "label": "Link ID",
    "role": "Identifier",
    "datatype": "Char",
    "core": "Perm",
    "description": "Used to facilitate identification of relationships between records.",
    "codelist": null,
    "sdtm_path": "/mdr/sdtmig/3-4/datasets/PR/variables/PRLNKID"
  },
  "PR.PRLNKGRP": {
    "variable": "PRLNKGRP",
    "domain": "PR",
    "domain_label": "Procedures",
    "label": "Link Group ID",
    "role": "Identifier",
    "datatype": "Char",
    "core": "Perm",
    "description": "Used to facilitate identification of relationships between records.",
    "codelist": null,
    "sdtm_path": "/mdr/sdtmig/3-4/datasets/PR/variables/PRLNKGRP"
  },
  "PR.PRTRT": {
    "variable": "PRTRT",
    "domain": "PR",
    "domain_label": "Procedures",
    "label": "Reported Name of Procedure",
    "role": "Topic",
    "datatype": "Char",
    "core": "Req",
    "description": "Name of procedure performed, either preprinted or collected on a CRF.",
    "codelist": null,
    "sdtm_path": "/mdr/sdtmig/3-4/datasets/PR/variables/PRTRT"
  },
  "PR.PRDECOD": {
    "variable": "PRDECOD",
    "domain": "PR",
    "domain_label": "Procedures",
    "label": "Standardized Procedure Name",
    "role": "Synonym Qualifier",
    "datatype": "Char",
    "core": "Perm",
    "description": "Standardized or dictionary-derived name of PRTRT. If the codelist \"PROCEDUR\" is not used, the sponsor is expected to provide the dictionary name and version used to map the terms in the external codelist element in the Define-XML document. If an intervention term does not have a decode value, then PRDECOD will be null.",
    "codelist": "/mdr/root/ct/sdtmct/codelists/C101858",
    "sdtm_path": "/mdr/sdtmig/3-4/datasets/PR/variables/PRDECOD"
  },
  "PR.PRCAT": {
    "variable": "PRCAT",
    "domain": "PR",
    "domain_label": "Procedures",
    "label": "Category",
    "role": "Grouping Qualifier",
    "datatype": "Char",
    "core": "Perm",
    "description": "Used to define a category of procedure values.",
    "codelist": null,
    "sdtm_path": "/mdr/sdtmig/3-4/datasets/PR/variables/PRCAT"
  },
  "PR.PRSCAT": {
    "variable": "PRSCAT",
    "domain": "PR",
    "domain_label": "Procedures",
    "label": "Subcategory",
    "role": "Grouping Qualifier",
    "datatype": "Char",
    "core": "Perm",
    "description": "Used to define a further categorization of PRCAT values.",
    "codelist": null,
    "sdtm_path": "/mdr/sdtmig/3-4/datasets/PR/variables/PRSCAT"
  },
  "PR.PRPRESP": {
    "variable": "PRPRESP",
    "domain": "PR",
    "domain_label": "Procedures",
    "label": "Pre-specified",
    "role": "Variable Qualifier",
    "datatype": "Char",
    "core": "Perm",
    "description": "Used when a specific procedure is pre-specified on a CRF. Values should be \"Y\" or null.",
    "codelist": "/mdr/root/ct/sdtmct/codelists/C66742",
    "sdtm_path": "/mdr/sdtmig/3-4/datasets/PR/variables/PRPRESP"
  },
  "PR.PROCCUR": {
    "variable": "PROCCUR",
    "domain": "PR",
    "domain_label": "Procedures",
    "label": "Occurrence",
    "role": "Record Qualifier",
    "datatype": "Char",
    "core": "Perm",
    "description": "Used to record whether a prespecified procedure occurred when information about the occurrence of a specific procedure is solicited.",
    "codelist": "/mdr/root/ct/sdtmct/codelists/C66742",
    "sdtm_path": "/mdr/sdtmig/3-4/datasets/PR/variables/PROCCUR"
  },
  "PR.PRINDC": {
    "variable": "PRINDC",
    "domain": "PR",
    "domain_label": "Procedures",
    "label": "Indication",
    "role": "Record Qualifier",
    "datatype": "Char",
    "core": "Perm",
    "description": "Denotes the indication for the procedure (e.g., why the procedure was performed).",
    "codelist": null,
    "sdtm_path": "/mdr/sdtmig/3-4/datasets/PR/variables/PRINDC"
  },
  "PR.PRDOSE": {
    "variable": "PRDOSE",
    "domain": "PR",
    "domain_label": "Procedures",
    "label": "Dose",
    "role": "Record Qualifier",
    "datatype": "Num",
    "core": "Perm",
    "description": "Amount of PRTRT administered. Not populated when PRDOSTXT is populated.",
    "codelist": null,
    "sdtm_path": "/mdr/sdtmig/3-4/datasets/PR/variables/PRDOSE"
  },
  "PR.PRDOSTXT": {
    "variable": "PRDOSTXT",
    "domain": "PR",
    "domain_label": "Procedures",
    "label": "Dose Description",
    "role": "Record Qualifier",
    "datatype": "Char",
    "core": "Perm",
    "description": "Dosing information collected in text form. Examples: \"<1\", \"200-400\". Not populated when PRDOSE is populated.",
    "codelist": null,
    "sdtm_path": "/mdr/sdtmig/3-4/datasets/PR/variables/PRDOSTXT"
  },
  "PR.PRDOSU": {
    "variable": "PRDOSU",
    "domain": "PR",
    "domain_label": "Procedures",
    "label": "Dose Units",
    "role": "Variable Qualifier",
    "datatype": "Char",
    "core": "Perm",
    "description": "Units for PRDOSE, PRDOSTOT, or PRDOSTXT.",
    "codelist": "/mdr/root/ct/sdtmct/codelists/C71620",
    "sdtm_path": "/mdr/sdtmig/3-4/datasets/PR/variables/PRDOSU"
  },
  "PR.PRDOSFRM": {
    "variable": "PRDOSFRM",
    "domain": "PR",
    "domain_label": "Procedures",
    "label": "Dose Form",
    "role": "Variable Qualifier",
    "datatype": "Char",
    "core": "Perm",
    "description": "Dose form for PRTRT.",
    "codelist": "/mdr/root/ct/sdtmct/codelists/C66726",
    "sdtm_path": "/mdr/sdtmig/3-4/datasets/PR/variables/PRDOSFRM"
  },
  "PR.PRDOSFRQ": {
    "variable": "PRDOSFRQ",
    "domain": "PR",
    "domain_label": "Procedures",
    "label": "Dosing Frequency per Interval",
    "role": "Record Qualifier",
    "datatype": "Char",
    "core": "Perm",
    "description": "Usually expressed as the number of doses given per a specific interval.",
    "codelist": "/mdr/root/ct/sdtmct/codelists/C71113",
    "sdtm_path": "/mdr/sdtmig/3-4/datasets/PR/variables/PRDOSFRQ"
  },
  "PR.PRDOSRGM": {
    "variable": "PRDOSRGM",
    "domain": "PR",
    "domain_label": "Procedures",
    "label": "Intended Dose Regimen",
    "role": "Record Qualifier",
    "datatype": "Char",
    "core": "Perm",
    "description": "Text description of the intended schedule or regimen for the procedure.",
    "codelist": null,
    "sdtm_path": "/mdr/sdtmig/3-4/datasets/PR/variables/PRDOSRGM"
  },
  "PR.PRROUTE": {
    "variable": "PRROUTE",
    "domain": "PR",
    "domain_label": "Procedures",
    "label": "Route of Administration",
    "role": "Variable Qualifier",
    "datatype": "Char",
    "core": "Perm",
    "description": "Route of administration for PRTRT.",
    "codelist": "/mdr/root/ct/sdtmct/codelists/C66729",
    "sdtm_path": "/mdr/sdtmig/3-4/datasets/PR/variables/PRROUTE"
  },
  "PR.PRLOC": {
    "variable": "PRLOC",
    "domain": "PR",
    "domain_label": "Procedures",
    "label": "Location of Procedure",
    "role": "Record Qualifier",
    "datatype": "Char",
    "core": "Perm",
    "description": "Anatomical location of a procedure.",
    "codelist": "/mdr/root/ct/sdtmct/codelists/C74456",
    "sdtm_path": "/mdr/sdtmig/3-4/datasets/PR/variables/PRLOC"
  },
  "PR.PRLAT": {
    "variable": "PRLAT",
    "domain": "PR",
    "domain_label": "Procedures",
    "label": "Laterality",
    "role": "Variable Qualifier",
    "datatype": "Char",
    "core": "Perm",
    "description": "Qualifier for anatomical location or specimen further detailing laterality.",
    "codelist": "/mdr/root/ct/sdtmct/codelists/C99073",
    "sdtm_path": "/mdr/sdtmig/3-4/datasets/PR/variables/PRLAT"
  },
  "PR.PRDIR": {
    "variable": "PRDIR",
    "domain": "PR",
    "domain_label": "Procedures",
    "label": "Directionality",
    "role": "Variable Qualifier",
    "datatype": "Char",
    "core": "Perm",
    "description": "Qualifier for anatomical location or specimen further detailing directionality.",
    "codelist": "/mdr/root/ct/sdtmct/codelists/C99074",
    "sdtm_path": "/mdr/sdtmig/3-4/datasets/PR/variables/PRDIR"
  },
  "PR.PRPORTOT": {
    "variable": "PRPORTOT",
    "domain": "PR",
    "domain_label": "Procedures",
    "label": "Portion or Totality",
    "role": "Variable Qualifier",
    "datatype": "Char",
    "core": "Perm",
    "description": "Qualifier for anatomical location or specimen further detailing the distribution, which means arrangement of, apportioning of.",
    "codelist": "/mdr/root/ct/sdtmct/codelists/C99075",
    "sdtm_path": "/mdr/sdtmig/3-4/datasets/PR/variables/PRPORTOT"
  },
  "PR.VISITNUM": {
    "variable": "VISITNUM",
    "domain": "PR",
    "domain_label": "Procedures",
    "label": "Visit Number",
    "role": "Timing",
    "datatype": "Num",
    "core": "Perm",
    "description": "Clinical encounter number. Numeric version of VISIT, used for sorting.",
    "codelist": null,
    "sdtm_path": "/mdr/sdtmig/3-4/datasets/PR/variables/VISITNUM"
  },
  "PR.VISIT": {
    "variable": "VISIT",
    "domain": "PR",
    "domain_label": "Procedures",
    "label": "Visit Name",
    "role": "Timing",
    "datatype": "Char",
    "core": "Perm",
    "description": "Protocol-defined description of a clinical encounter.",
    "codelist": null,
    "sdtm_path": "/mdr/sdtmig/3-4/datasets/PR/variables/VISIT"
  },
  "PR.VISITDY": {
    "variable": "VISITDY",
    "domain": "PR",
    "domain_label": "Procedures",
    "label": "Planned Study Day of Visit",
    "role": "Timing",
    "datatype": "Num",
    "core": "Perm",
    "description": "Planned study day of VISIT. Should be an integer.",
    "codelist": null,
    "sdtm_path": "/mdr/sdtmig/3-4/datasets/PR/variables/VISITDY"
  },
  "PR.TAETORD": {
    "variable": "TAETORD",
    "domain": "PR",
    "domain_label": "Procedures",
    "label": "Planned Order of Element within Arm",
    "role": "Timing",
    "datatype": "Num",
    "core": "Perm",
    "description": "Number that gives the planned order of the element within the arm.",
    "codelist": null,
    "sdtm_path": "/mdr/sdtmig/3-4/datasets/PR/variables/TAETORD"
  },
  "PR.EPOCH": {
    "variable": "EPOCH",
    "domain": "PR",
    "domain_label": "Procedures",
    "label": "Epoch",
    "role": "Timing",
    "datatype": "Char",
    "core": "Perm",
    "description": "Epoch associated with the start date/time of the procedure.",
    "codelist": "/mdr/root/ct/sdtmct/codelists/C99079",
    "sdtm_path": "/mdr/sdtmig/3-4/datasets/PR/variables/EPOCH"
  },
  "PR.PRSTDTC": {
    "variable": "PRSTDTC",
    "domain": "PR",
    "domain_label": "Procedures",
    "label": "Start Date/Time of Procedure",
    "role": "Timing",
    "datatype": "Char",
    "core": "Exp",
    "description": "Start date/time of the procedure represented in ISO 8601 character format.",
    "codelist": null,
    "sdtm_path": "/mdr/sdtmig/3-4/datasets/PR/variables/PRSTDTC"
  },
  "PR.PRENDTC": {
    "variable": "PRENDTC",
    "domain": "PR",
    "domain_label": "Procedures",
    "label": "End Date/Time of Procedure",
    "role": "Timing",
    "datatype": "Char",
    "core": "Perm",
    "description": "End date/time of the procedure represented in ISO 8601 character format.",
    "codelist": null,
    "sdtm_path": "/mdr/sdtmig/3-4/datasets/PR/variables/PRENDTC"
  },
  "PR.PRSTDY": {
    "variable": "PRSTDY",
    "domain": "PR",
    "domain_label": "Procedures",
    "label": "Study Day of Start of Procedure",
    "role": "Timing",
    "datatype": "Num",
    "core": "Perm",
    "description": "Study day of start of procedure expressed in integer days relative to the sponsor-defined RFSTDTC in Demographics.",
    "codelist": null,
    "sdtm_path": "/mdr/sdtmig/3-4/datasets/PR/variables/PRSTDY"
  },
  "PR.PRENDY": {
    "variable": "PRENDY",
    "domain": "PR",
    "domain_label": "Procedures",
    "label": "Study Day of End of Procedure",
    "role": "Timing",
    "datatype": "Num",
    "core": "Perm",
    "description": "Study day of end of procedure expressed in integer days relative to the sponsor-defined RFSTDTC in Demographics.",
    "codelist": null,
    "sdtm_path": "/mdr/sdtmig/3-4/datasets/PR/variables/PRENDY"
  },
  "PR.PRDUR": {
    "variable": "PRDUR",
    "domain": "PR",
    "domain_label": "Procedures",
    "label": "Duration of Procedure",
    "role": "Timing",
    "datatype": "Char",
    "core": "Perm",
    "description": "Collected duration of a procedure represented in ISO 8601 character format. Used only if collected on the CRF and not derived from start and end date/times.",
    "codelist": null,
    "sdtm_path": "/mdr/sdtmig/3-4/datasets/PR/variables/PRDUR"
  },
  "PR.PRTPT": {
    "variable": "PRTPT",
    "domain": "PR",
    "domain_label": "Procedures",
    "label": "Planned Time Point Name",
    "role": "Timing",
    "datatype": "Char",
    "core": "Perm",
    "description": "Text description of time when a procedure should be performed. This may be represented as an elapsed time relative to a fixed reference point, such as time of last dose. See PRTPTNUM and PRTPTREF.",
    "codelist": null,
    "sdtm_path": "/mdr/sdtmig/3-4/datasets/PR/variables/PRTPT"
  },
  "PR.PRTPTNUM": {
    "variable": "PRTPTNUM",
    "domain": "PR",
    "domain_label": "Procedures",
    "label": "Planned Time Point Number",
    "role": "Timing",
    "datatype": "Num",
    "core": "Perm",
    "description": "Numerical version of planned time point used in sorting.",
    "codelist": null,
    "sdtm_path": "/mdr/sdtmig/3-4/datasets/PR/variables/PRTPTNUM"
  },
  "PR.PRELTM": {
    "variable": "PRELTM",
    "domain": "PR",
    "domain_label": "Procedures",
    "label": "Planned Elapsed Time from Time Point Ref",
    "role": "Timing",
    "datatype": "Char",
    "core": "Perm",
    "description": "Planned elapsed time in ISO 8601 format relative to a planned fixed reference (PRTPTREF). This variable is useful where there are repetitive measures. Not a clock time or a date/time variable, but an interval, represented as ISO duration.",
    "codelist": null,
    "sdtm_path": "/mdr/sdtmig/3-4/datasets/PR/variables/PRELTM"
  },
  "PR.PRTPTREF": {
    "variable": "PRTPTREF",
    "domain": "PR",
    "domain_label": "Procedures",
    "label": "Time Point Reference",
    "role": "Timing",
    "datatype": "Char",
    "core": "Perm",
    "description": "Description of the fixed reference point referred to by PRELTM, PRTPTNUM, and PRTPT.",
    "codelist": null,
    "sdtm_path": "/mdr/sdtmig/3-4/datasets/PR/variables/PRTPTREF"
  },
  "PR.PRRFTDTC": {
    "variable": "PRRFTDTC",
    "domain": "PR",
    "domain_label": "Procedures",
    "label": "Date/Time of Reference Time Point",
    "role": "Timing",
    "datatype": "Char",
    "core": "Perm",
    "description": "Date/time for a fixed reference time point defined by PRTRTREF in ISO 8601 character format.",
    "codelist": null,
    "sdtm_path": "/mdr/sdtmig/3-4/datasets/PR/variables/PRRFTDTC"
  },
  "PR.PRSTRTPT": {
    "variable": "PRSTRTPT",
    "domain": "PR",
    "domain_label": "Procedures",
    "label": "Start Relative to Reference Time Point",
    "role": "Timing",
    "datatype": "Char",
    "core": "Perm",
    "description": "Identifies the start of the observation as being before or after the sponsor-defined reference time point defined by variable PRSTTPT. \\n Not all values of the codelist are allowable for this variable. See Section 4.4.7, Use of Relative Timing Variables.",
    "codelist": "/mdr/root/ct/sdtmct/codelists/C66728",
    "sdtm_path": "/mdr/sdtmig/3-4/datasets/PR/variables/PRSTRTPT"
  },
  "PR.PRSTTPT": {
    "variable": "PRSTTPT",
    "domain": "PR",
    "domain_label": "Procedures",
    "label": "Start Reference Time Point",
    "role": "Timing",
    "datatype": "Char",
    "core": "Perm",
    "description": "Description or date/time in ISO 8601 character format of the sponsor-defined reference point referred to by PRSTRTPT. Examples: \"2003-12-15\", \"VISIT 1\".",
    "codelist": null,
    "sdtm_path": "/mdr/sdtmig/3-4/datasets/PR/variables/PRSTTPT"
  },
  "PR.PRENRTPT": {
    "variable": "PRENRTPT",
    "domain": "PR",
    "domain_label": "Procedures",
    "label": "End Relative to Reference Time Point",
    "role": "Timing",
    "datatype": "Char",
    "core": "Perm",
    "description": "Identifies the end of the observation as being before or after the sponsor-defined reference time point defined by variable PRENTPT. \\n Not all values of the codelist are allowable for this variable. See Section 4.4.7, Use of Relative Timing Variables.",
    "codelist": "/mdr/root/ct/sdtmct/codelists/C66728",
    "sdtm_path": "/mdr/sdtmig/3-4/datasets/PR/variables/PRENRTPT"
  },
  "PR.PRENTPT": {
    "variable": "PRENTPT",
    "domain": "PR",
    "domain_label": "Procedures",
    "label": "End Reference Time Point",
    "role": "Timing",
    "datatype": "Char",
    "core": "Perm",
    "description": "Description or date/time in ISO 8601 character format of the sponsor-defined reference point referred to by PRENRTPT. Examples: \"2003-12-25\", \"VISIT 2\".",
    "codelist": null,
    "sdtm_path": "/mdr/sdtmig/3-4/datasets/PR/variables/PRENTPT"
  },
  "SU.STUDYID": {
    "variable": "STUDYID",
    "domain": "SU",
    "domain_label": "Substance Use",
    "label": "Study Identifier",
    "role": "Identifier",
    "datatype": "Char",
    "core": "Req",
    "description": "Unique identifier for a study.",
    "codelist": null,
    "sdtm_path": "/mdr/sdtmig/3-4/datasets/SU/variables/STUDYID"
  },
  "SU.DOMAIN": {
    "variable": "DOMAIN",
    "domain": "SU",
    "domain_label": "Substance Use",
    "label": "Domain Abbreviation",
    "role": "Identifier",
    "datatype": "Char",
    "core": "Req",
    "description": "Two-character abbreviation for the domain.",
    "codelist": null,
    "sdtm_path": "/mdr/sdtmig/3-4/datasets/SU/variables/DOMAIN"
  },
  "SU.USUBJID": {
    "variable": "USUBJID",
    "domain": "SU",
    "domain_label": "Substance Use",
    "label": "Unique Subject Identifier",
    "role": "Identifier",
    "datatype": "Char",
    "core": "Req",
    "description": "Identifier used to uniquely identify a subject across all studies for all applications or submissions involving the product.",
    "codelist": null,
    "sdtm_path": "/mdr/sdtmig/3-4/datasets/SU/variables/USUBJID"
  },
  "SU.SUSEQ": {
    "variable": "SUSEQ",
    "domain": "SU",
    "domain_label": "Substance Use",
    "label": "Sequence Number",
    "role": "Identifier",
    "datatype": "Num",
    "core": "Req",
    "description": "Sequence number given to ensure uniqueness of subject records within a domain. May be any valid number.",
    "codelist": null,
    "sdtm_path": "/mdr/sdtmig/3-4/datasets/SU/variables/SUSEQ"
  },
  "SU.SUGRPID": {
    "variable": "SUGRPID",
    "domain": "SU",
    "domain_label": "Substance Use",
    "label": "Group ID",
    "role": "Identifier",
    "datatype": "Char",
    "core": "Perm",
    "description": "Used to tie together a block of related records in a single domain for a subject.",
    "codelist": null,
    "sdtm_path": "/mdr/sdtmig/3-4/datasets/SU/variables/SUGRPID"
  },
  "SU.SUSPID": {
    "variable": "SUSPID",
    "domain": "SU",
    "domain_label": "Substance Use",
    "label": "Sponsor-Defined Identifier",
    "role": "Identifier",
    "datatype": "Char",
    "core": "Perm",
    "description": "Sponsor-defined reference number. May be preprinted on the CRF as an explicit line identifier or defined in the sponsor's operational database. Example: Line number on a Tobacco & Alcohol Use CRF page.",
    "codelist": null,
    "sdtm_path": "/mdr/sdtmig/3-4/datasets/SU/variables/SUSPID"
  },
  "SU.SUTRT": {
    "variable": "SUTRT",
    "domain": "SU",
    "domain_label": "Substance Use",
    "label": "Reported Name of Substance",
    "role": "Topic",
    "datatype": "Char",
    "core": "Req",
    "description": "Substance name. Examples: \"CIGARETTES\", \"COFFEE\".",
    "codelist": null,
    "sdtm_path": "/mdr/sdtmig/3-4/datasets/SU/variables/SUTRT"
  },
  "SU.SUMODIFY": {
    "variable": "SUMODIFY",
    "domain": "SU",
    "domain_label": "Substance Use",
    "label": "Modified Substance Name",
    "role": "Synonym Qualifier",
    "datatype": "Char",
    "core": "Perm",
    "description": "If SUTRT is modified, then the modified text is placed here.",
    "codelist": null,
    "sdtm_path": "/mdr/sdtmig/3-4/datasets/SU/variables/SUMODIFY"
  },
  "SU.SUDECOD": {
    "variable": "SUDECOD",
    "domain": "SU",
    "domain_label": "Substance Use",
    "label": "Standardized Substance Name",
    "role": "Synonym Qualifier",
    "datatype": "Char",
    "core": "Perm",
    "description": "Standardized or dictionary-derived text description of SUTRT or SUMODIFY if the sponsor chooses to code the substance use. The sponsor is expected to provide the dictionary name and version used to map the terms utilizing the external codelist element in the Define-XML document.",
    "codelist": null,
    "sdtm_path": "/mdr/sdtmig/3-4/datasets/SU/variables/SUDECOD"
  },
  "SU.SUCAT": {
    "variable": "SUCAT",
    "domain": "SU",
    "domain_label": "Substance Use",
    "label": "Category for Substance Use",
    "role": "Grouping Qualifier",
    "datatype": "Char",
    "core": "Perm",
    "description": "Used to define a category of related records. Examples: \"TOBACCO\", \"ALCOHOL\", or \"CAFFEINE\".",
    "codelist": null,
    "sdtm_path": "/mdr/sdtmig/3-4/datasets/SU/variables/SUCAT"
  },
  "SU.SUSCAT": {
    "variable": "SUSCAT",
    "domain": "SU",
    "domain_label": "Substance Use",
    "label": "Subcategory for Substance Use",
    "role": "Grouping Qualifier",
    "datatype": "Char",
    "core": "Perm",
    "description": "A further categorization of substance use. Examples: \"CIGARS\", \"CIGARETTES\", \"BEER\", \"WINE\".",
    "codelist": null,
    "sdtm_path": "/mdr/sdtmig/3-4/datasets/SU/variables/SUSCAT"
  },
  "SU.SUPRESP": {
    "variable": "SUPRESP",
    "domain": "SU",
    "domain_label": "Substance Use",
    "label": "SU Pre-Specified",
    "role": "Variable Qualifier",
    "datatype": "Char",
    "core": "Perm",
    "description": "Used to indicate whether (\"Y\"/null) information about the use of a specific substance was solicited on the CRF.",
    "codelist": "/mdr/root/ct/sdtmct/codelists/C66742",
    "sdtm_path": "/mdr/sdtmig/3-4/datasets/SU/variables/SUPRESP"
  },
  "SU.SUOCCUR": {
    "variable": "SUOCCUR",
    "domain": "SU",
    "domain_label": "Substance Use",
    "label": "SU Occurrence",
    "role": "Record Qualifier",
    "datatype": "Char",
    "core": "Perm",
    "description": "When the use of specific substances is solicited, SUOCCUR is used to indicate whether (\"Y\"/\"N\") a particular prespecified substance was used. Values are null for substances not specifically solicited.",
    "codelist": "/mdr/root/ct/sdtmct/codelists/C66742",
    "sdtm_path": "/mdr/sdtmig/3-4/datasets/SU/variables/SUOCCUR"
  },
  "SU.SUSTAT": {
    "variable": "SUSTAT",
    "domain": "SU",
    "domain_label": "Substance Use",
    "label": "Completion Status",
    "role": "Record Qualifier",
    "datatype": "Char",
    "core": "Perm",
    "description": "When the use of prespecified substances is solicited, the completion status indicates that there was no response to the question about the prespecified substance. When there is no prespecified list on the CRF, then the completion status indicates that substance use was not assessed for the subject.",
    "codelist": "/mdr/root/ct/sdtmct/codelists/C66789",
    "sdtm_path": "/mdr/sdtmig/3-4/datasets/SU/variables/SUSTAT"
  },
  "SU.SUREASND": {
    "variable": "SUREASND",
    "domain": "SU",
    "domain_label": "Substance Use",
    "label": "Reason Substance Use Not Collected",
    "role": "Record Qualifier",
    "datatype": "Char",
    "core": "Perm",
    "description": "Describes the reason substance use was not collected. Used in conjunction with SUSTAT when value of SUSTAT is \"NOT DONE\".",
    "codelist": null,
    "sdtm_path": "/mdr/sdtmig/3-4/datasets/SU/variables/SUREASND"
  },
  "SU.SUCLAS": {
    "variable": "SUCLAS",
    "domain": "SU",
    "domain_label": "Substance Use",
    "label": "Substance Use Class",
    "role": "Variable Qualifier",
    "datatype": "Char",
    "core": "Perm",
    "description": "Substance use class. May be obtained from coding. When coding to a single class, populate with class value. If using a dictionary and coding to multiple classes, then follow Section 4.2.8.3, Multiple Values for a Non-result Qualifier Variable, or omit SUCLAS.",
    "codelist": null,
    "sdtm_path": "/mdr/sdtmig/3-4/datasets/SU/variables/SUCLAS"
  },
  "SU.SUCLASCD": {
    "variable": "SUCLASCD",
    "domain": "SU",
    "domain_label": "Substance Use",
    "label": "Substance Use Class Code",
    "role": "Variable Qualifier",
    "datatype": "Char",
    "core": "Perm",
    "description": "Code corresponding to SUCLAS. May be obtained from coding.",
    "codelist": null,
    "sdtm_path": "/mdr/sdtmig/3-4/datasets/SU/variables/SUCLASCD"
  },
  "SU.SUDOSE": {
    "variable": "SUDOSE",
    "domain": "SU",
    "domain_label": "Substance Use",
    "label": "Substance Use Consumption",
    "role": "Record Qualifier",
    "datatype": "Num",
    "core": "Perm",
    "description": "Amount of SUTRT consumed. Not populated if SUDOSTXT is populated.",
    "codelist": null,
    "sdtm_path": "/mdr/sdtmig/3-4/datasets/SU/variables/SUDOSE"
  },
  "SU.SUDOSTXT": {
    "variable": "SUDOSTXT",
    "domain": "SU",
    "domain_label": "Substance Use",
    "label": "Substance Use Consumption Text",
    "role": "Record Qualifier",
    "datatype": "Char",
    "core": "Perm",
    "description": "Substance use consumption amounts or a range of consumption information collected in text form. Not populated if SUDOSE is populated.",
    "codelist": null,
    "sdtm_path": "/mdr/sdtmig/3-4/datasets/SU/variables/SUDOSTXT"
  },
  "SU.SUDOSU": {
    "variable": "SUDOSU",
    "domain": "SU",
    "domain_label": "Substance Use",
    "label": "Consumption Units",
    "role": "Variable Qualifier",
    "datatype": "Char",
    "core": "Perm",
    "description": "Units for SUDOSE, SUDOSTOT, or SUDOSTXT. Examples: \"oz\", \"CIGARETTE\", \"PACK\", \"g\".",
    "codelist": "/mdr/root/ct/sdtmct/codelists/C71620",
    "sdtm_path": "/mdr/sdtmig/3-4/datasets/SU/variables/SUDOSU"
  },
  "SU.SUDOSFRM": {
    "variable": "SUDOSFRM",
    "domain": "SU",
    "domain_label": "Substance Use",
    "label": "Dose Form",
    "role": "Variable Qualifier",
    "datatype": "Char",
    "core": "Perm",
    "description": "Dose form for SUTRT. Examples: \"INJECTABLE\", \"LIQUID\", \"POWDER\".",
    "codelist": "/mdr/root/ct/sdtmct/codelists/C66726",
    "sdtm_path": "/mdr/sdtmig/3-4/datasets/SU/variables/SUDOSFRM"
  },
  "SU.SUDOSFRQ": {
    "variable": "SUDOSFRQ",
    "domain": "SU",
    "domain_label": "Substance Use",
    "label": "Use Frequency Per Interval",
    "role": "Variable Qualifier",
    "datatype": "Char",
    "core": "Perm",
    "description": "Usually expressed as the number of repeated administrations of SUDOSE within a specific time period. Example: \"Q24H\" (every day).",
    "codelist": "/mdr/root/ct/sdtmct/codelists/C71113",
    "sdtm_path": "/mdr/sdtmig/3-4/datasets/SU/variables/SUDOSFRQ"
  },
  "SU.SUDOSTOT": {
    "variable": "SUDOSTOT",
    "domain": "SU",
    "domain_label": "Substance Use",
    "label": "Total Daily Consumption",
    "role": "Record Qualifier",
    "datatype": "Num",
    "core": "Perm",
    "description": "Total daily use of SUTRT using the units in SUDOSU. Used when dosing is collected as total daily dose. If a sponsor needs to aggregate the data over a period other than daily, then the aggregated total could be recorded in a supplemental qualifier variable.",
    "codelist": null,
    "sdtm_path": "/mdr/sdtmig/3-4/datasets/SU/variables/SUDOSTOT"
  },
  "SU.SUROUTE": {
    "variable": "SUROUTE",
    "domain": "SU",
    "domain_label": "Substance Use",
    "label": "Route of Administration",
    "role": "Variable Qualifier",
    "datatype": "Char",
    "core": "Perm",
    "description": "Route of administration for SUTRT. Examples: \"ORAL\", \"INTRAVENOUS\".",
    "codelist": "/mdr/root/ct/sdtmct/codelists/C66729",
    "sdtm_path": "/mdr/sdtmig/3-4/datasets/SU/variables/SUROUTE"
  },
  "SU.TAETORD": {
    "variable": "TAETORD",
    "domain": "SU",
    "domain_label": "Substance Use",
    "label": "Planned Order of Element within Arm",
    "role": "Timing",
    "datatype": "Num",
    "core": "Perm",
    "description": "Number that gives the planned order of the element within the arm for the element in which the substance use started. Null for substances that started before study participation.",
    "codelist": null,
    "sdtm_path": "/mdr/sdtmig/3-4/datasets/SU/variables/TAETORD"
  },
  "SU.EPOCH": {
    "variable": "EPOCH",
    "domain": "SU",
    "domain_label": "Substance Use",
    "label": "Epoch",
    "role": "Timing",
    "datatype": "Char",
    "core": "Perm",
    "description": "Epoch associated with the start date/time of the substance use. Null for substances that started before study participation.",
    "codelist": "/mdr/root/ct/sdtmct/codelists/C99079",
    "sdtm_path": "/mdr/sdtmig/3-4/datasets/SU/variables/EPOCH"
  },
  "SU.SUSTDTC": {
    "variable": "SUSTDTC",
    "domain": "SU",
    "domain_label": "Substance Use",
    "label": "Start Date/Time of Substance Use",
    "role": "Timing",
    "datatype": "Char",
    "core": "Perm",
    "description": "Start date/time of the substance use represented in ISO 8601 character format.",
    "codelist": null,
    "sdtm_path": "/mdr/sdtmig/3-4/datasets/SU/variables/SUSTDTC"
  },
  "SU.SUENDTC": {
    "variable": "SUENDTC",
    "domain": "SU",
    "domain_label": "Substance Use",
    "label": "End Date/Time of Substance Use",
    "role": "Timing",
    "datatype": "Char",
    "core": "Perm",
    "description": "End date/time of the substance use represented in ISO 8601 character format.",
    "codelist": null,
    "sdtm_path": "/mdr/sdtmig/3-4/datasets/SU/variables/SUENDTC"
  },
  "SU.SUSTDY": {
    "variable": "SUSTDY",
    "domain": "SU",
    "domain_label": "Substance Use",
    "label": "Study Day of Start of Substance Use",
    "role": "Timing",
    "datatype": "Num",
    "core": "Perm",
    "description": "Study day of start of substance use relative to the sponsor-defined RFSTDTC.",
    "codelist": null,
    "sdtm_path": "/mdr/sdtmig/3-4/datasets/SU/variables/SUSTDY"
  },
  "SU.SUENDY": {
    "variable": "SUENDY",
    "domain": "SU",
    "domain_label": "Substance Use",
    "label": "Study Day of End of Substance Use",
    "role": "Timing",
    "datatype": "Num",
    "core": "Perm",
    "description": "Study day of end of substance use relative to the sponsor-defined RFSTDTC.",
    "codelist": null,
    "sdtm_path": "/mdr/sdtmig/3-4/datasets/SU/variables/SUENDY"
  },
  "SU.SUDUR": {
    "variable": "SUDUR",
    "domain": "SU",
    "domain_label": "Substance Use",
    "label": "Duration of Substance Use",
    "role": "Timing",
    "datatype": "Char",
    "core": "Perm",
    "description": "Collected duration of substance use in ISO 8601 format. Used only if collected on the CRF and not derived from start and end date/times.",
    "codelist": null,
    "sdtm_path": "/mdr/sdtmig/3-4/datasets/SU/variables/SUDUR"
  },
  "SU.SUSTRF": {
    "variable": "SUSTRF",
    "domain": "SU",
    "domain_label": "Substance Use",
    "label": "Start Relative to Reference Period",
    "role": "Timing",
    "datatype": "Char",
    "core": "Perm",
    "description": "Describes the start of the substance use relative to the sponsor-defined reference period. The sponsor-defined reference period is a continuous period of time defined by a discrete starting point and a discrete ending point (represented by RFSTDTC and RFENDTC in Demographics). If information such as \"PRIOR\" was collected, this information may be translated into SUSTRF. \\n Not all values of the codelist are allowable for this variable. See Section 4.4.7, Use of Relative Timing Variables.",
    "codelist": "/mdr/root/ct/sdtmct/codelists/C66728",
    "sdtm_path": "/mdr/sdtmig/3-4/datasets/SU/variables/SUSTRF"
  },
  "SU.SUENRF": {
    "variable": "SUENRF",
    "domain": "SU",
    "domain_label": "Substance Use",
    "label": "End Relative to Reference Period",
    "role": "Timing",
    "datatype": "Char",
    "core": "Perm",
    "description": "Describes the end of the substance use with relative to the sponsor-defined reference period. The sponsor-defined reference period is a continuous period of time defined by a discrete starting point and a discrete ending point (represented by RFSTDTC and RFENDTC in Demographics). If information such as \"PRIOR\", \"ONGOING\", or \"CONTINUING\" was collected, this information may be translated into SUENRF. \\n Not all values of the codelist are allowable for this variable. See Section 4.4.7, Use of Relative Timing Variables.",
    "codelist": "/mdr/root/ct/sdtmct/codelists/C66728",
    "sdtm_path": "/mdr/sdtmig/3-4/datasets/SU/variables/SUENRF"
  },
  "SU.SUSTRTPT": {
    "variable": "SUSTRTPT",
    "domain": "SU",
    "domain_label": "Substance Use",
    "label": "Start Relative to Reference Time Point",
    "role": "Timing",
    "datatype": "Char",
    "core": "Perm",
    "description": "Identifies the start of the substance as being before or after the reference time point defined by variable SUSTTPT. \\n Not all values of the codelist are allowable for this variable. See Section 4.4.7 , Use of Relative Timing Variables.",
    "codelist": "/mdr/root/ct/sdtmct/codelists/C66728",
    "sdtm_path": "/mdr/sdtmig/3-4/datasets/SU/variables/SUSTRTPT"
  },
  "SU.SUSTTPT": {
    "variable": "SUSTTPT",
    "domain": "SU",
    "domain_label": "Substance Use",
    "label": "Start Reference Time Point",
    "role": "Timing",
    "datatype": "Char",
    "core": "Perm",
    "description": "Description or date/time in ISO 8601 character format of the reference point referred to by SUSTRTPT. Examples: \"2003-12-15\", \"VISIT 1\".",
    "codelist": null,
    "sdtm_path": "/mdr/sdtmig/3-4/datasets/SU/variables/SUSTTPT"
  },
  "SU.SUENRTPT": {
    "variable": "SUENRTPT",
    "domain": "SU",
    "domain_label": "Substance Use",
    "label": "End Relative to Reference Time Point",
    "role": "Timing",
    "datatype": "Char",
    "core": "Perm",
    "description": "Identifies the end of the substance as being before or after the reference time point defined by variable SUENTPT. \\n Not all values of the codelist are allowable for this variable. See Section 4.4.7 , Use of Relative Timing Variables.",
    "codelist": "/mdr/root/ct/sdtmct/codelists/C66728",
    "sdtm_path": "/mdr/sdtmig/3-4/datasets/SU/variables/SUENRTPT"
  },
  "SU.SUENTPT": {
    "variable": "SUENTPT",
    "domain": "SU",
    "domain_label": "Substance Use",
    "label": "End Reference Time Point",
    "role": "Timing",
    "datatype": "Char",
    "core": "Perm",
    "description": "Description or date/time in ISO 8601 character format of the reference point referred to by SUENRTPT. Examples: \"2003-12-25\", \"VISIT 2\".",
    "codelist": null,
    "sdtm_path": "/mdr/sdtmig/3-4/datasets/SU/variables/SUENTPT"
  },
  "AE.STUDYID": {
    "variable": "STUDYID",
    "domain": "AE",
    "domain_label": "Adverse Events",
    "label": "Study Identifier",
    "role": "Identifier",
    "datatype": "Char",
    "core": "Req",
    "description": "Unique identifier for a study.",
    "codelist": null,
    "sdtm_path": "/mdr/sdtmig/3-4/datasets/AE/variables/STUDYID"
  },
  "AE.DOMAIN": {
    "variable": "DOMAIN",
    "domain": "AE",
    "domain_label": "Adverse Events",
    "label": "Domain Abbreviation",
    "role": "Identifier",
    "datatype": "Char",
    "core": "Req",
    "description": "Two-character abbreviation for the domain.",
    "codelist": null,
    "sdtm_path": "/mdr/sdtmig/3-4/datasets/AE/variables/DOMAIN"
  },
  "AE.USUBJID": {
    "variable": "USUBJID",
    "domain": "AE",
    "domain_label": "Adverse Events",
    "label": "Unique Subject Identifier",
    "role": "Identifier",
    "datatype": "Char",
    "core": "Req",
    "description": "Identifier used to uniquely identify a subject across all studies for all applications or submissions involving the product.",
    "codelist": null,
    "sdtm_path": "/mdr/sdtmig/3-4/datasets/AE/variables/USUBJID"
  },
  "AE.SPDEVID": {
    "variable": "SPDEVID",
    "domain": "AE",
    "domain_label": "Adverse Events",
    "label": "Sponsor Device Identifier",
    "role": "Identifier",
    "datatype": "Char",
    "core": "Perm",
    "description": "A sequence of characters used by the sponsor to uniquely identify a specific device. Used to represent a device associated in some way with the adverse event. SPDEVID values are defined in the Device Identifiers (DI) domain.",
    "codelist": null,
    "sdtm_path": "/mdr/sdtmig/3-4/datasets/AE/variables/SPDEVID"
  },
  "AE.AESEQ": {
    "variable": "AESEQ",
    "domain": "AE",
    "domain_label": "Adverse Events",
    "label": "Sequence Number",
    "role": "Identifier",
    "datatype": "Num",
    "core": "Req",
    "description": "Sequence number given to ensure uniqueness of subject records within a domain. May be any valid number.",
    "codelist": null,
    "sdtm_path": "/mdr/sdtmig/3-4/datasets/AE/variables/AESEQ"
  },
  "AE.AEGRPID": {
    "variable": "AEGRPID",
    "domain": "AE",
    "domain_label": "Adverse Events",
    "label": "Group ID",
    "role": "Identifier",
    "datatype": "Char",
    "core": "Perm",
    "description": "Used to tie together a block of related records in a single domain for a subject.",
    "codelist": null,
    "sdtm_path": "/mdr/sdtmig/3-4/datasets/AE/variables/AEGRPID"
  },
  "AE.AEREFID": {
    "variable": "AEREFID",
    "domain": "AE",
    "domain_label": "Adverse Events",
    "label": "Reference ID",
    "role": "Identifier",
    "datatype": "Char",
    "core": "Perm",
    "description": "Internal or external identifier such as a serial number on an SAE reporting form.",
    "codelist": null,
    "sdtm_path": "/mdr/sdtmig/3-4/datasets/AE/variables/AEREFID"
  },
  "AE.AESPID": {
    "variable": "AESPID",
    "domain": "AE",
    "domain_label": "Adverse Events",
    "label": "Sponsor-Defined Identifier",
    "role": "Identifier",
    "datatype": "Char",
    "core": "Perm",
    "description": "Sponsor-defined identifier. It may be preprinted on the CRF as an explicit line identifier or defined in the sponsor's operational database. Example: Line number on an Adverse Events CRF page.",
    "codelist": null,
    "sdtm_path": "/mdr/sdtmig/3-4/datasets/AE/variables/AESPID"
  },
  "AE.AETERM": {
    "variable": "AETERM",
    "domain": "AE",
    "domain_label": "Adverse Events",
    "label": "Reported Term for the Adverse Event",
    "role": "Topic",
    "datatype": "Char",
    "core": "Req",
    "description": "Verbatim name of the event.",
    "codelist": null,
    "sdtm_path": "/mdr/sdtmig/3-4/datasets/AE/variables/AETERM"
  },
  "AE.AEMODIFY": {
    "variable": "AEMODIFY",
    "domain": "AE",
    "domain_label": "Adverse Events",
    "label": "Modified Reported Term",
    "role": "Synonym Qualifier",
    "datatype": "Char",
    "core": "Perm",
    "description": "If AETERM is modified to facilitate coding, then AEMODIFY will contain the modified text.",
    "codelist": null,
    "sdtm_path": "/mdr/sdtmig/3-4/datasets/AE/variables/AEMODIFY"
  },
  "AE.AELLT": {
    "variable": "AELLT",
    "domain": "AE",
    "domain_label": "Adverse Events",
    "label": "Lowest Level Term",
    "role": "Variable Qualifier",
    "datatype": "Char",
    "core": "Exp",
    "description": "Dictionary-derived text description of the lowest level term.",
    "codelist": null,
    "sdtm_path": "/mdr/sdtmig/3-4/datasets/AE/variables/AELLT"
  },
  "AE.AELLTCD": {
    "variable": "AELLTCD",
    "domain": "AE",
    "domain_label": "Adverse Events",
    "label": "Lowest Level Term Code",
    "role": "Variable Qualifier",
    "datatype": "Num",
    "core": "Exp",
    "description": "Dictionary-derived code for the lowest level term.",
    "codelist": null,
    "sdtm_path": "/mdr/sdtmig/3-4/datasets/AE/variables/AELLTCD"
  },
  "AE.AEDECOD": {
    "variable": "AEDECOD",
    "domain": "AE",
    "domain_label": "Adverse Events",
    "label": "Dictionary-Derived Term",
    "role": "Synonym Qualifier",
    "datatype": "Char",
    "core": "Req",
    "description": "Dictionary-derived text description of AETERM or AEMODIFY. Equivalent to the Preferred Term (PT in MedDRA). The sponsor is expected to provide the dictionary name and version used to map the terms utilizing the external codelist element in the Define-XML document.",
    "codelist": null,
    "sdtm_path": "/mdr/sdtmig/3-4/datasets/AE/variables/AEDECOD"
  },
  "AE.AEPTCD": {
    "variable": "AEPTCD",
    "domain": "AE",
    "domain_label": "Adverse Events",
    "label": "Preferred Term Code",
    "role": "Variable Qualifier",
    "datatype": "Num",
    "core": "Exp",
    "description": "Dictionary-derived code for the preferred term.",
    "codelist": null,
    "sdtm_path": "/mdr/sdtmig/3-4/datasets/AE/variables/AEPTCD"
  },
  "AE.AEHLT": {
    "variable": "AEHLT",
    "domain": "AE",
    "domain_label": "Adverse Events",
    "label": "High Level Term",
    "role": "Variable Qualifier",
    "datatype": "Char",
    "core": "Exp",
    "description": "Dictionary-derived text description of the high level term for the primary system organ class (SOC).",
    "codelist": null,
    "sdtm_path": "/mdr/sdtmig/3-4/datasets/AE/variables/AEHLT"
  },
  "AE.AEHLTCD": {
    "variable": "AEHLTCD",
    "domain": "AE",
    "domain_label": "Adverse Events",
    "label": "High Level Term Code",
    "role": "Variable Qualifier",
    "datatype": "Num",
    "core": "Exp",
    "description": "Dictionary-derived code for the high level term for the primary SOC.",
    "codelist": null,
    "sdtm_path": "/mdr/sdtmig/3-4/datasets/AE/variables/AEHLTCD"
  },
  "AE.AEHLGT": {
    "variable": "AEHLGT",
    "domain": "AE",
    "domain_label": "Adverse Events",
    "label": "High Level Group Term",
    "role": "Variable Qualifier",
    "datatype": "Char",
    "core": "Exp",
    "description": "Dictionary-derived text description of the high level group term for the primary SOC.",
    "codelist": null,
    "sdtm_path": "/mdr/sdtmig/3-4/datasets/AE/variables/AEHLGT"
  },
  "AE.AEHLGTCD": {
    "variable": "AEHLGTCD",
    "domain": "AE",
    "domain_label": "Adverse Events",
    "label": "High Level Group Term Code",
    "role": "Variable Qualifier",
    "datatype": "Num",
    "core": "Exp",
    "description": "Dictionary-derived code for the high level group term for the primary SOC.",
    "codelist": null,
    "sdtm_path": "/mdr/sdtmig/3-4/datasets/AE/variables/AEHLGTCD"
  },
  "AE.AECAT": {
    "variable": "AECAT",
    "domain": "AE",
    "domain_label": "Adverse Events",
    "label": "Category for Adverse Event",
    "role": "Grouping Qualifier",
    "datatype": "Char",
    "core": "Perm",
    "description": "Used to define a category of related records. Examples: \"BLEEDING\", \"NEUROPSYCHIATRIC\".",
    "codelist": null,
    "sdtm_path": "/mdr/sdtmig/3-4/datasets/AE/variables/AECAT"
  },
  "AE.AESCAT": {
    "variable": "AESCAT",
    "domain": "AE",
    "domain_label": "Adverse Events",
    "label": "Subcategory for Adverse Event",
    "role": "Grouping Qualifier",
    "datatype": "Char",
    "core": "Perm",
    "description": "A further categorization of adverse event. Example: \"NEUROLOGIC\".",
    "codelist": null,
    "sdtm_path": "/mdr/sdtmig/3-4/datasets/AE/variables/AESCAT"
  },
  "AE.AEPRESP": {
    "variable": "AEPRESP",
    "domain": "AE",
    "domain_label": "Adverse Events",
    "label": "Pre-Specified Adverse Event",
    "role": "Variable Qualifier",
    "datatype": "Char",
    "core": "Perm",
    "description": "A value of \"Y\" indicates that this adverse event was prespecified on the CRF. Values are null for spontaneously reported events (i.e., those collected as free-text verbatim terms).",
    "codelist": "/mdr/root/ct/sdtmct/codelists/C66742",
    "sdtm_path": "/mdr/sdtmig/3-4/datasets/AE/variables/AEPRESP"
  },
  "AE.AEBODSYS": {
    "variable": "AEBODSYS",
    "domain": "AE",
    "domain_label": "Adverse Events",
    "label": "Body System or Organ Class",
    "role": "Record Qualifier",
    "datatype": "Char",
    "core": "Exp",
    "description": "Dictionary derived. Body system or organ class used by the sponsor from the coding dictionary (e.g., MedDRA). When using a multi-axial dictionary such as MedDRA, this should contain the SOC used for the sponsor's analyses and summary tables, which may not necessarily be the primary SOC.",
    "codelist": null,
    "sdtm_path": "/mdr/sdtmig/3-4/datasets/AE/variables/AEBODSYS"
  },
  "AE.AEBDSYCD": {
    "variable": "AEBDSYCD",
    "domain": "AE",
    "domain_label": "Adverse Events",
    "label": "Body System or Organ Class Code",
    "role": "Variable Qualifier",
    "datatype": "Num",
    "core": "Exp",
    "description": "Dictionary derived. Code for the body system or organ class used by the sponsor. When using a multi-axial dictionary such as MedDRA, this should contain the SOC used for the sponsor's analyses and summary tables, which may not necessarily be the primary SOC.",
    "codelist": null,
    "sdtm_path": "/mdr/sdtmig/3-4/datasets/AE/variables/AEBDSYCD"
  },
  "AE.AESOC": {
    "variable": "AESOC",
    "domain": "AE",
    "domain_label": "Adverse Events",
    "label": "Primary System Organ Class",
    "role": "Variable Qualifier",
    "datatype": "Char",
    "core": "Exp",
    "description": "Dictionary-derived text description of the primary SOC. Will be the same as AEBODSYS if the primary SOC was used for analysis.",
    "codelist": null,
    "sdtm_path": "/mdr/sdtmig/3-4/datasets/AE/variables/AESOC"
  },
  "AE.AESOCCD": {
    "variable": "AESOCCD",
    "domain": "AE",
    "domain_label": "Adverse Events",
    "label": "Primary System Organ Class Code",
    "role": "Variable Qualifier",
    "datatype": "Num",
    "core": "Exp",
    "description": "Dictionary-derived code for the primary SOC. Will be the same as AEBDSYCD if the primary SOC was used for analysis.",
    "codelist": null,
    "sdtm_path": "/mdr/sdtmig/3-4/datasets/AE/variables/AESOCCD"
  },
  "AE.AELOC": {
    "variable": "AELOC",
    "domain": "AE",
    "domain_label": "Adverse Events",
    "label": "Location of Event",
    "role": "Record Qualifier",
    "datatype": "Char",
    "core": "Perm",
    "description": "Describes anatomical location relevant for the event (e.g., \"ARM\" for skin rash).",
    "codelist": "/mdr/root/ct/sdtmct/codelists/C74456",
    "sdtm_path": "/mdr/sdtmig/3-4/datasets/AE/variables/AELOC"
  },
  "AE.AESEV": {
    "variable": "AESEV",
    "domain": "AE",
    "domain_label": "Adverse Events",
    "label": "Severity/Intensity",
    "role": "Record Qualifier",
    "datatype": "Char",
    "core": "Perm",
    "description": "The severity or intensity of the event. Examples: \"MILD\", \"MODERATE\", \"SEVERE\".",
    "codelist": "/mdr/root/ct/sdtmct/codelists/C66769",
    "sdtm_path": "/mdr/sdtmig/3-4/datasets/AE/variables/AESEV"
  },
  "AE.AESER": {
    "variable": "AESER",
    "domain": "AE",
    "domain_label": "Adverse Events",
    "label": "Serious Event",
    "role": "Record Qualifier",
    "datatype": "Char",
    "core": "Exp",
    "description": "Is this a serious event? Valid values are \"Y\" and \"N\".",
    "codelist": "/mdr/root/ct/sdtmct/codelists/C66742",
    "sdtm_path": "/mdr/sdtmig/3-4/datasets/AE/variables/AESER"
  },
  "AE.AEACN": {
    "variable": "AEACN",
    "domain": "AE",
    "domain_label": "Adverse Events",
    "label": "Action Taken with Study Treatment",
    "role": "Record Qualifier",
    "datatype": "Char",
    "core": "Exp",
    "description": "Describes changes to the study treatment as a result of the event. AEACN is specifically for the relationship to study treatment. AEACNOTH is for actions unrelated to dose adjustments of study treatment. Examples of AEACN values include ICH E2B values: \"DRUG WITHDRAWN\", \"DOSE REDUCED\", \"DOSE INCREASED\", \"DOSE NOT CHANGED\", \"UNKNOWN\" and \"NOT APPLICABLE\".",
    "codelist": "/mdr/root/ct/sdtmct/codelists/C66767",
    "sdtm_path": "/mdr/sdtmig/3-4/datasets/AE/variables/AEACN"
  },
  "AE.AEACNOTH": {
    "variable": "AEACNOTH",
    "domain": "AE",
    "domain_label": "Adverse Events",
    "label": "Other Action Taken",
    "role": "Record Qualifier",
    "datatype": "Char",
    "core": "Perm",
    "description": "Describes other actions taken as a result of the event that are unrelated to dose adjustments of study treatment. Usually reported as free text. Example: \"TREATMENT UNBLINDED. PRIMARY CARE PHYSICIAN NOTIFIED\".",
    "codelist": null,
    "sdtm_path": "/mdr/sdtmig/3-4/datasets/AE/variables/AEACNOTH"
  },
  "AE.AEACNDEV": {
    "variable": "AEACNDEV",
    "domain": "AE",
    "domain_label": "Adverse Events",
    "label": "Action Taken with Device",
    "role": "Record Qualifier",
    "datatype": "Char",
    "core": "Perm",
    "description": "An action taken with a device as the result of the event. The device may or may not be a device under study.",
    "codelist": "/mdr/root/ct/sdtmct/codelists/C111110",
    "sdtm_path": "/mdr/sdtmig/3-4/datasets/AE/variables/AEACNDEV"
  },
  "AE.AEREL": {
    "variable": "AEREL",
    "domain": "AE",
    "domain_label": "Adverse Events",
    "label": "Causality",
    "role": "Record Qualifier",
    "datatype": "Char",
    "core": "Exp",
    "description": "Records the investigator's opinion as to the causality of the event to the treatment. ICH does not establish any required or recommended terms for non-device relatedness. ICH E2A and E2B examples include (up-cased here for alignment to SDTM conventions) terms such as \"NOT RELATED\", \"UNLIKELY RELATED\", \"POSSIBLY RELATED\", \"RELATED\", but these example terms do not establish any conventions or expectations. Controlled terminology may be defined in the future. Check with regulatory authority for population of this variable.",
    "codelist": null,
    "sdtm_path": "/mdr/sdtmig/3-4/datasets/AE/variables/AEREL"
  },
  "AE.AERLDEV": {
    "variable": "AERLDEV",
    "domain": "AE",
    "domain_label": "Adverse Events",
    "label": "Relationship of Event to Device",
    "role": "Record Qualifier",
    "datatype": "Char",
    "core": "Perm",
    "description": "A judgment as to the likelihood that the device caused the adverse event. The relationship is to a device identified in the data (i.e., has an SPDEVID). The device may be ancillary or under study. \\n Terminology: \\n * In the EU, follow the European Commission Guidelines on Medical Devices, Clinical Investigations: SAE Reporting (MEDDEV 2.7/3) (e.g., Not Related, Unlikely, Possible, Probable, Causal Relationship), with device-specific definitions. \\n * No required Controlled Terminology in US.",
    "codelist": null,
    "sdtm_path": "/mdr/sdtmig/3-4/datasets/AE/variables/AERLDEV"
  },
  "AE.AERELNST": {
    "variable": "AERELNST",
    "domain": "AE",
    "domain_label": "Adverse Events",
    "label": "Relationship to Non-Study Treatment",
    "role": "Record Qualifier",
    "datatype": "Char",
    "core": "Perm",
    "description": "Records the investigator's opinion as to whether the event may have been due to a treatment other than study drug. May be reported as free text. Example: \"MORE LIKELY RELATED TO ASPIRIN USE\".",
    "codelist": null,
    "sdtm_path": "/mdr/sdtmig/3-4/datasets/AE/variables/AERELNST"
  },
  "AE.AEPATT": {
    "variable": "AEPATT",
    "domain": "AE",
    "domain_label": "Adverse Events",
    "label": "Pattern of Adverse Event",
    "role": "Record Qualifier",
    "datatype": "Char",
    "core": "Perm",
    "description": "Used to indicate the pattern of the event over time. Examples: \"INTERMITTENT\", \"CONTINUOUS\", \"SINGLE EVENT\".",
    "codelist": null,
    "sdtm_path": "/mdr/sdtmig/3-4/datasets/AE/variables/AEPATT"
  },
  "AE.AEOUT": {
    "variable": "AEOUT",
    "domain": "AE",
    "domain_label": "Adverse Events",
    "label": "Outcome of Adverse Event",
    "role": "Record Qualifier",
    "datatype": "Char",
    "core": "Perm",
    "description": "Description of the outcome of an event.",
    "codelist": "/mdr/root/ct/sdtmct/codelists/C66768",
    "sdtm_path": "/mdr/sdtmig/3-4/datasets/AE/variables/AEOUT"
  },
  "AE.AESCAN": {
    "variable": "AESCAN",
    "domain": "AE",
    "domain_label": "Adverse Events",
    "label": "Involves Cancer",
    "role": "Record Qualifier",
    "datatype": "Char",
    "core": "Perm",
    "description": "Was the serious event associated with the development of cancer? Valid values are \"Y\" and \"N\". This is a legacy seriousness criterion. It is not included in ICH E2A or E2B.",
    "codelist": "/mdr/root/ct/sdtmct/codelists/C66742",
    "sdtm_path": "/mdr/sdtmig/3-4/datasets/AE/variables/AESCAN"
  },
  "AE.AESCONG": {
    "variable": "AESCONG",
    "domain": "AE",
    "domain_label": "Adverse Events",
    "label": "Congenital Anomaly or Birth Defect",
    "role": "Record Qualifier",
    "datatype": "Char",
    "core": "Perm",
    "description": "Was the serious event associated with congenital anomaly or birth defect? Valid values are \"Y\" and \"N\".",
    "codelist": "/mdr/root/ct/sdtmct/codelists/C66742",
    "sdtm_path": "/mdr/sdtmig/3-4/datasets/AE/variables/AESCONG"
  },
  "AE.AESDISAB": {
    "variable": "AESDISAB",
    "domain": "AE",
    "domain_label": "Adverse Events",
    "label": "Persist or Signif Disability/Incapacity",
    "role": "Record Qualifier",
    "datatype": "Char",
    "core": "Perm",
    "description": "Did the serious event result in persistent or significant disability/incapacity? Valid values are \"Y\" and \"N\".",
    "codelist": "/mdr/root/ct/sdtmct/codelists/C66742",
    "sdtm_path": "/mdr/sdtmig/3-4/datasets/AE/variables/AESDISAB"
  },
  "AE.AESDTH": {
    "variable": "AESDTH",
    "domain": "AE",
    "domain_label": "Adverse Events",
    "label": "Results in Death",
    "role": "Record Qualifier",
    "datatype": "Char",
    "core": "Perm",
    "description": "Did the serious event result in death? Valid values are \"Y\" and \"N\".",
    "codelist": "/mdr/root/ct/sdtmct/codelists/C66742",
    "sdtm_path": "/mdr/sdtmig/3-4/datasets/AE/variables/AESDTH"
  },
  "AE.AESHOSP": {
    "variable": "AESHOSP",
    "domain": "AE",
    "domain_label": "Adverse Events",
    "label": "Requires or Prolongs Hospitalization",
    "role": "Record Qualifier",
    "datatype": "Char",
    "core": "Perm",
    "description": "Did the serious event require or prolong hospitalization? Valid values are \"Y\" and \"N\".",
    "codelist": "/mdr/root/ct/sdtmct/codelists/C66742",
    "sdtm_path": "/mdr/sdtmig/3-4/datasets/AE/variables/AESHOSP"
  },
  "AE.AESLIFE": {
    "variable": "AESLIFE",
    "domain": "AE",
    "domain_label": "Adverse Events",
    "label": "Is Life Threatening",
    "role": "Record Qualifier",
    "datatype": "Char",
    "core": "Perm",
    "description": "Was the serious event life-threatening? Valid values are \"Y\" and \"N\".",
    "codelist": "/mdr/root/ct/sdtmct/codelists/C66742",
    "sdtm_path": "/mdr/sdtmig/3-4/datasets/AE/variables/AESLIFE"
  },
  "AE.AESOD": {
    "variable": "AESOD",
    "domain": "AE",
    "domain_label": "Adverse Events",
    "label": "Occurred with Overdose",
    "role": "Record Qualifier",
    "datatype": "Char",
    "core": "Perm",
    "description": "Did the serious event occur with an overdose? Valid values are \"Y\" and \"N\". This is a legacy seriousness criterion. It is not included in ICH E2A or E2B.",
    "codelist": "/mdr/root/ct/sdtmct/codelists/C66742",
    "sdtm_path": "/mdr/sdtmig/3-4/datasets/AE/variables/AESOD"
  },
  "AE.AESMIE": {
    "variable": "AESMIE",
    "domain": "AE",
    "domain_label": "Adverse Events",
    "label": "Other Medically Important Serious Event",
    "role": "Record Qualifier",
    "datatype": "Char",
    "core": "Perm",
    "description": "Do additional categories for seriousness apply? Valid values are \"Y\" and \"N\".",
    "codelist": "/mdr/root/ct/sdtmct/codelists/C66742",
    "sdtm_path": "/mdr/sdtmig/3-4/datasets/AE/variables/AESMIE"
  },
  "AE.AESINTV": {
    "variable": "AESINTV",
    "domain": "AE",
    "domain_label": "Adverse Events",
    "label": "Needs Intervention to Prevent Impairment",
    "role": "Record Qualifier",
    "datatype": "Char",
    "core": "Perm",
    "description": "Records whether medical or surgical intervention was necessary to preclude permanent impairment of a body function, or to prevent permanent damage to a body structure, with either situation suspected to be due to the use of a medical product. This variable is used in conjunction with the other \"seriousness\" variables (e.g., fatal, life-threatening). It is part of the US federal government definition of a serious adverse event; see 21 CFR Part 803.3(w)(3).",
    "codelist": "/mdr/root/ct/sdtmct/codelists/C66742",
    "sdtm_path": "/mdr/sdtmig/3-4/datasets/AE/variables/AESINTV"
  },
  "AE.AEUNANT": {
    "variable": "AEUNANT",
    "domain": "AE",
    "domain_label": "Adverse Events",
    "label": "Unanticipated Adverse Device Effect",
    "role": "Record Qualifier",
    "datatype": "Char",
    "core": "Perm",
    "description": "Any serious adverse effect on health or safety or any life-threatening problem or death caused by or associated with a device, if that effect, problem, or death was not previously identified in nature, severity, or degree of incidence in the investigational plan or application (including a supplementary plan or application), \\n or \\n any other unanticipated serious problem associated with a device that relates to the rights, safety, or welfare of subjects. (21 CFR Part 812.3(s)). \\n This variable applies only to serious AEs and should hold collected data; if the value is derived, it should be held in ADaM.",
    "codelist": "/mdr/root/ct/sdtmct/codelists/C66742",
    "sdtm_path": "/mdr/sdtmig/3-4/datasets/AE/variables/AEUNANT"
  },
  "AE.AERLPRT": {
    "variable": "AERLPRT",
    "domain": "AE",
    "domain_label": "Adverse Events",
    "label": "Rel of AE to Non-Dev-Rel Study Activity",
    "role": "Record Qualifier",
    "datatype": "Char",
    "core": "Perm",
    "description": "The investigator's opinion as to the causality of the event as related to other protocol-required activities, actions, or assessments (e.g., medication changes, tests/assessments, other procedures). The relationship is to a protocol-specified, non-device-related activity where the device is identified in the data (i.e., has an SPDEVID). The device may be ancillary or under study. \\n Terminology: \\n * In the EU, follow the European Commission Guidelines on Medical Devices, Clinical Investigations: SAE Reporting (MEDDEV 2.7/3) (e.g., Not Related, Unlikely, Possible, Probable, Causal Relationship), with device-specific definitions. \\n * No required Controlled Terminology in US.",
    "codelist": null,
    "sdtm_path": "/mdr/sdtmig/3-4/datasets/AE/variables/AERLPRT"
  },
  "AE.AERLPRC": {
    "variable": "AERLPRC",
    "domain": "AE",
    "domain_label": "Adverse Events",
    "label": "Rel of AE to Device-Related Procedure",
    "role": "Record Qualifier",
    "datatype": "Char",
    "core": "Perm",
    "description": "The investigator's opinion as to the likelihood that the device-related study procedure (e.g., implant/insertion, revision/adjustment, explant/removal) caused the AE. The relationship is to a device-related procedure where the device is identified in the data (i.e., has an SPDEVID). The device may be ancillary or under study. \\n Terminology: \\n * In the EU, follow the European Commission Guidelines on Medical Devices, Clinical Investigations: SAE Reporting (MEDDEV 2.7/3) (e.g., Not Related, Unlikely, Possible, Probable, Causal Relationship), with device-specific definitions. \\n * No required Controlled Terminology in US.",
    "codelist": null,
    "sdtm_path": "/mdr/sdtmig/3-4/datasets/AE/variables/AERLPRC"
  },
  "AE.AECONTRT": {
    "variable": "AECONTRT",
    "domain": "AE",
    "domain_label": "Adverse Events",
    "label": "Concomitant or Additional Trtmnt Given",
    "role": "Record Qualifier",
    "datatype": "Char",
    "core": "Perm",
    "description": "Was another treatment given because of the occurrence of the event? Valid values are \"Y\" and \"N\".",
    "codelist": "/mdr/root/ct/sdtmct/codelists/C66742",
    "sdtm_path": "/mdr/sdtmig/3-4/datasets/AE/variables/AECONTRT"
  },
  "AE.AETOXGR": {
    "variable": "AETOXGR",
    "domain": "AE",
    "domain_label": "Adverse Events",
    "label": "Standard Toxicity Grade",
    "role": "Record Qualifier",
    "datatype": "Char",
    "core": "Perm",
    "description": "Toxicity grade according to a standard toxicity scale (e.g., Common Terminology Criteria for Adverse Events, CTCAE). Sponsors should specify the name of the scale and version used in the metadata (see assumption 7d). If value is from a numeric scale, represent only the number (e.g., \"2\", not \"Grade 2\").",
    "codelist": null,
    "sdtm_path": "/mdr/sdtmig/3-4/datasets/AE/variables/AETOXGR"
  },
  "AE.TAETORD": {
    "variable": "TAETORD",
    "domain": "AE",
    "domain_label": "Adverse Events",
    "label": "Planned Order of Element within Arm",
    "role": "Timing",
    "datatype": "Num",
    "core": "Perm",
    "description": "Number that gives the planned order of the element within the arm.",
    "codelist": null,
    "sdtm_path": "/mdr/sdtmig/3-4/datasets/AE/variables/TAETORD"
  },
  "AE.EPOCH": {
    "variable": "EPOCH",
    "domain": "AE",
    "domain_label": "Adverse Events",
    "label": "Epoch",
    "role": "Timing",
    "datatype": "Char",
    "core": "Perm",
    "description": "Epoch associated with the start date/time of the adverse event. Examples: \"SCREENING\", \"TREATMENT\", \"FOLLOW-UP\".",
    "codelist": "/mdr/root/ct/sdtmct/codelists/C99079",
    "sdtm_path": "/mdr/sdtmig/3-4/datasets/AE/variables/EPOCH"
  },
  "AE.AESTDTC": {
    "variable": "AESTDTC",
    "domain": "AE",
    "domain_label": "Adverse Events",
    "label": "Start Date/Time of Adverse Event",
    "role": "Timing",
    "datatype": "Char",
    "core": "Exp",
    "description": "Start date/time of the adverse event represented in ISO 8601 character format.",
    "codelist": null,
    "sdtm_path": "/mdr/sdtmig/3-4/datasets/AE/variables/AESTDTC"
  },
  "AE.AEENDTC": {
    "variable": "AEENDTC",
    "domain": "AE",
    "domain_label": "Adverse Events",
    "label": "End Date/Time of Adverse Event",
    "role": "Timing",
    "datatype": "Char",
    "core": "Exp",
    "description": "End date/time of the adverse event represented in ISO 8601 character format.",
    "codelist": null,
    "sdtm_path": "/mdr/sdtmig/3-4/datasets/AE/variables/AEENDTC"
  },
  "AE.AESTDY": {
    "variable": "AESTDY",
    "domain": "AE",
    "domain_label": "Adverse Events",
    "label": "Study Day of Start of Adverse Event",
    "role": "Timing",
    "datatype": "Num",
    "core": "Perm",
    "description": "Study day of start of adverse event relative to the sponsor-defined RFSTDTC.",
    "codelist": null,
    "sdtm_path": "/mdr/sdtmig/3-4/datasets/AE/variables/AESTDY"
  },
  "AE.AEENDY": {
    "variable": "AEENDY",
    "domain": "AE",
    "domain_label": "Adverse Events",
    "label": "Study Day of End of Adverse Event",
    "role": "Timing",
    "datatype": "Num",
    "core": "Perm",
    "description": "Study day of end of event relative to the sponsor-defined RFSTDTC.",
    "codelist": null,
    "sdtm_path": "/mdr/sdtmig/3-4/datasets/AE/variables/AEENDY"
  },
  "AE.AEDUR": {
    "variable": "AEDUR",
    "domain": "AE",
    "domain_label": "Adverse Events",
    "label": "Duration of Adverse Event",
    "role": "Timing",
    "datatype": "Char",
    "core": "Perm",
    "description": "Collected duration and unit of an adverse event. Used only if collected on the CRF and not derived from start and end date/times. Example: \"P1DT2H\" (for 1 day, 2 hours).",
    "codelist": null,
    "sdtm_path": "/mdr/sdtmig/3-4/datasets/AE/variables/AEDUR"
  },
  "AE.AEENRF": {
    "variable": "AEENRF",
    "domain": "AE",
    "domain_label": "Adverse Events",
    "label": "End Relative to Reference Period",
    "role": "Timing",
    "datatype": "Char",
    "core": "Perm",
    "description": "Describes the end of the event relative to the sponsor-defined reference period. The sponsor-defined reference period is a continuous period of time defined by a discrete starting point (RFSTDTC) and a discrete ending point (RFENDTC) of the trial. \\n Not all values of the codelist are allowable for this variable. See Section 4.4.7, Use of Relative Timing Variables.",
    "codelist": "/mdr/root/ct/sdtmct/codelists/C66728",
    "sdtm_path": "/mdr/sdtmig/3-4/datasets/AE/variables/AEENRF"
  },
  "AE.AEENRTPT": {
    "variable": "AEENRTPT",
    "domain": "AE",
    "domain_label": "Adverse Events",
    "label": "End Relative to Reference Time Point",
    "role": "Timing",
    "datatype": "Char",
    "core": "Perm",
    "description": "Identifies the end of the event as being before or after the reference time point defined by variable AEENTPT. \\n Not all values of the codelist are allowable for this variable. See Section 4.4.7, Use of Relative Timing Variables.",
    "codelist": "/mdr/root/ct/sdtmct/codelists/C66728",
    "sdtm_path": "/mdr/sdtmig/3-4/datasets/AE/variables/AEENRTPT"
  },
  "AE.AEENTPT": {
    "variable": "AEENTPT",
    "domain": "AE",
    "domain_label": "Adverse Events",
    "label": "End Reference Time Point",
    "role": "Timing",
    "datatype": "Char",
    "core": "Perm",
    "description": "Description of date/time in ISO 8601 character format of the reference point referred to by AEENRTPT. Examples: \"2003-12-25\", \"VISIT 2\".",
    "codelist": null,
    "sdtm_path": "/mdr/sdtmig/3-4/datasets/AE/variables/AEENTPT"
  },
  "BE.STUDYID": {
    "variable": "STUDYID",
    "domain": "BE",
    "domain_label": "Biospecimen Events",
    "label": "Study Identifier",
    "role": "Identifier",
    "datatype": "Char",
    "core": "Req",
    "description": "Unique identifier for a study.",
    "codelist": null,
    "sdtm_path": "/mdr/sdtmig/3-4/datasets/BE/variables/STUDYID"
  },
  "BE.DOMAIN": {
    "variable": "DOMAIN",
    "domain": "BE",
    "domain_label": "Biospecimen Events",
    "label": "Domain Abbreviation",
    "role": "Identifier",
    "datatype": "Char",
    "core": "Req",
    "description": "Two-character abbreviation for the domain.",
    "codelist": null,
    "sdtm_path": "/mdr/sdtmig/3-4/datasets/BE/variables/DOMAIN"
  },
  "BE.USUBJID": {
    "variable": "USUBJID",
    "domain": "BE",
    "domain_label": "Biospecimen Events",
    "label": "Unique Subject Identifier",
    "role": "Identifier",
    "datatype": "Char",
    "core": "Req",
    "description": "Identifier used to uniquely identify a subject across all studies for all applications or submissions involving the product.",
    "codelist": null,
    "sdtm_path": "/mdr/sdtmig/3-4/datasets/BE/variables/USUBJID"
  },
  "BE.SPDEVID": {
    "variable": "SPDEVID",
    "domain": "BE",
    "domain_label": "Biospecimen Events",
    "label": "Sponsor Device Identifier",
    "role": "Identifier",
    "datatype": "Char",
    "core": "Perm",
    "description": "Sponsor-defined identifier for a device.",
    "codelist": null,
    "sdtm_path": "/mdr/sdtmig/3-4/datasets/BE/variables/SPDEVID"
  },
  "BE.BESEQ": {
    "variable": "BESEQ",
    "domain": "BE",
    "domain_label": "Biospecimen Events",
    "label": "Sequence Number",
    "role": "Identifier",
    "datatype": "Num",
    "core": "Req",
    "description": "Sequence number to ensure uniqueness of records within a dataset for a subject. May be any valid number (including decimals) and does not have to start at 1.",
    "codelist": null,
    "sdtm_path": "/mdr/sdtmig/3-4/datasets/BE/variables/BESEQ"
  },
  "BE.BEGRPID": {
    "variable": "BEGRPID",
    "domain": "BE",
    "domain_label": "Biospecimen Events",
    "label": "Group ID",
    "role": "Identifier",
    "datatype": "Char",
    "core": "Perm",
    "description": "Optional group identifier, used to link together a block of related records within a subject in a domain.",
    "codelist": null,
    "sdtm_path": "/mdr/sdtmig/3-4/datasets/BE/variables/BEGRPID"
  },
  "BE.BEREFID": {
    "variable": "BEREFID",
    "domain": "BE",
    "domain_label": "Biospecimen Events",
    "label": "Reference ID",
    "role": "Identifier",
    "datatype": "Char",
    "core": "Exp",
    "description": "Internal or external identifier for the specimen affected or created by the event.",
    "codelist": null,
    "sdtm_path": "/mdr/sdtmig/3-4/datasets/BE/variables/BEREFID"
  },
  "BE.BESPID": {
    "variable": "BESPID",
    "domain": "BE",
    "domain_label": "Biospecimen Events",
    "label": "Sponsor-Defined Identifier",
    "role": "Identifier",
    "datatype": "Char",
    "core": "Perm",
    "description": "Optional sponsor-defined reference number. Example: Line number on a CRF page.",
    "codelist": null,
    "sdtm_path": "/mdr/sdtmig/3-4/datasets/BE/variables/BESPID"
  },
  "BE.BETERM": {
    "variable": "BETERM",
    "domain": "BE",
    "domain_label": "Biospecimen Events",
    "label": "Reported Term for the Biospecimen Event",
    "role": "Topic",
    "datatype": "Char",
    "core": "Req",
    "description": "Topic variable for an event observation, which is the verbatim or pre-specified name of the event.",
    "codelist": null,
    "sdtm_path": "/mdr/sdtmig/3-4/datasets/BE/variables/BETERM"
  },
  "BE.BEMODIFY": {
    "variable": "BEMODIFY",
    "domain": "BE",
    "domain_label": "Biospecimen Events",
    "label": "Modified Reported Term",
    "role": "Synonym Qualifier",
    "datatype": "Char",
    "core": "Perm",
    "description": "If the value for BETERM is modified for coding purposes, then the modified text is placed here.",
    "codelist": null,
    "sdtm_path": "/mdr/sdtmig/3-4/datasets/BE/variables/BEMODIFY"
  },
  "BE.BEDECOD": {
    "variable": "BEDECOD",
    "domain": "BE",
    "domain_label": "Biospecimen Events",
    "label": "Dictionary-Derived Term",
    "role": "Synonym Qualifier",
    "datatype": "Char",
    "core": "Perm",
    "description": "Dictionary-derived text description of BETERM or BEMODIFY, if applicable.",
    "codelist": "/mdr/root/ct/sdtmct/codelists/C124297",
    "sdtm_path": "/mdr/sdtmig/3-4/datasets/BE/variables/BEDECOD"
  },
  "BE.BECAT": {
    "variable": "BECAT",
    "domain": "BE",
    "domain_label": "Biospecimen Events",
    "label": "Category for Biospecimen Event",
    "role": "Grouping Qualifier",
    "datatype": "Char",
    "core": "Perm",
    "description": "Used to define a category of topic-variable values. Example: COLLECTION, PREPARATION, TRANSPORT.",
    "codelist": null,
    "sdtm_path": "/mdr/sdtmig/3-4/datasets/BE/variables/BECAT"
  },
  "BE.BESCAT": {
    "variable": "BESCAT",
    "domain": "BE",
    "domain_label": "Biospecimen Events",
    "label": "Subcategory for Biospecimen Event",
    "role": "Grouping Qualifier",
    "datatype": "Char",
    "core": "Perm",
    "description": "A further categorization of BECAT values.",
    "codelist": null,
    "sdtm_path": "/mdr/sdtmig/3-4/datasets/BE/variables/BESCAT"
  },
  "BE.BELOC": {
    "variable": "BELOC",
    "domain": "BE",
    "domain_label": "Biospecimen Events",
    "label": "Anatomical Location of Event",
    "role": "Record Qualifier",
    "datatype": "Char",
    "core": "Perm",
    "description": "Describes the anatomical location relevant for the event (e.g. BRAIN, LUNG).",
    "codelist": "/mdr/root/ct/sdtmct/codelists/C74456",
    "sdtm_path": "/mdr/sdtmig/3-4/datasets/BE/variables/BELOC"
  },
  "BE.BEPARTY": {
    "variable": "BEPARTY",
    "domain": "BE",
    "domain_label": "Biospecimen Events",
    "label": "Accountable Party",
    "role": "Record Qualifier",
    "datatype": "Char",
    "core": "Perm",
    "description": "Party accountable for the transferable object (e.g. specimen) as a result of the activity performed in the associated BETERM variable. The party could be an individual (e.g., subject), an organization (e.g., sponsor), or a location that is a proxy for an individual or organization (e.g., site). It is usually a somewhat general term that is further identified in the BEPRTYID variable.",
    "codelist": null,
    "sdtm_path": "/mdr/sdtmig/3-4/datasets/BE/variables/BEPARTY"
  },
  "BE.BEPRTYID": {
    "variable": "BEPRTYID",
    "domain": "BE",
    "domain_label": "Biospecimen Events",
    "label": "Identification of Accountable Party",
    "role": "Record Qualifier",
    "datatype": "Char",
    "core": "Perm",
    "description": "Identification of the specific party accountable for the transferable object (e.g. Specimen) after the action in BETERM is taken. Used in conjunction with BEPARTY.",
    "codelist": null,
    "sdtm_path": "/mdr/sdtmig/3-4/datasets/BE/variables/BEPRTYID"
  },
  "BE.VISITNUM": {
    "variable": "VISITNUM",
    "domain": "BE",
    "domain_label": "Biospecimen Events",
    "label": "Visit Number",
    "role": "Timing",
    "datatype": "Num",
    "core": "Exp",
    "description": "Clinical encounter number. Numeric version of VISIT, used for sorting.",
    "codelist": null,
    "sdtm_path": "/mdr/sdtmig/3-4/datasets/BE/variables/VISITNUM"
  },
  "BE.VISIT": {
    "variable": "VISIT",
    "domain": "BE",
    "domain_label": "Biospecimen Events",
    "label": "Visit Name",
    "role": "Timing",
    "datatype": "Char",
    "core": "Perm",
    "description": "Protocol-defined description of clinical encounter.",
    "codelist": null,
    "sdtm_path": "/mdr/sdtmig/3-4/datasets/BE/variables/VISIT"
  },
  "BE.VISITDY": {
    "variable": "VISITDY",
    "domain": "BE",
    "domain_label": "Biospecimen Events",
    "label": "Planned Study Day of Visit",
    "role": "Timing",
    "datatype": "Num",
    "core": "Perm",
    "description": "Planned study day of VISIT. Should be an integer.",
    "codelist": null,
    "sdtm_path": "/mdr/sdtmig/3-4/datasets/BE/variables/VISITDY"
  },
  "BE.BEDTC": {
    "variable": "BEDTC",
    "domain": "BE",
    "domain_label": "Biospecimen Events",
    "label": "Date/Time of Specimen Collection",
    "role": "Timing",
    "datatype": "Char",
    "core": "Exp",
    "description": "Date and time of specimen collection.",
    "codelist": null,
    "sdtm_path": "/mdr/sdtmig/3-4/datasets/BE/variables/BEDTC"
  },
  "BE.BESTDTC": {
    "variable": "BESTDTC",
    "domain": "BE",
    "domain_label": "Biospecimen Events",
    "label": "Start Date/Time of Biospecimen Event",
    "role": "Timing",
    "datatype": "Char",
    "core": "Exp",
    "description": "Start date/time of the event.",
    "codelist": null,
    "sdtm_path": "/mdr/sdtmig/3-4/datasets/BE/variables/BESTDTC"
  },
  "BE.BEENDTC": {
    "variable": "BEENDTC",
    "domain": "BE",
    "domain_label": "Biospecimen Events",
    "label": "End Date/Time of Biospecimen Event",
    "role": "Timing",
    "datatype": "Char",
    "core": "Exp",
    "description": "End date/time of the event.",
    "codelist": null,
    "sdtm_path": "/mdr/sdtmig/3-4/datasets/BE/variables/BEENDTC"
  },
  "BE.BESTDY": {
    "variable": "BESTDY",
    "domain": "BE",
    "domain_label": "Biospecimen Events",
    "label": "Study Day of Start of Biospecimen Event",
    "role": "Timing",
    "datatype": "Num",
    "core": "Perm",
    "description": "Actual study day of start of observation expressed in integer days relative to the sponsor-defined RFSTDTC in Demographics.",
    "codelist": null,
    "sdtm_path": "/mdr/sdtmig/3-4/datasets/BE/variables/BESTDY"
  },
  "BE.BEENDY": {
    "variable": "BEENDY",
    "domain": "BE",
    "domain_label": "Biospecimen Events",
    "label": "Study Day of End of Biospecimen Event",
    "role": "Timing",
    "datatype": "Num",
    "core": "Perm",
    "description": "Actual study day of end of observation expressed in integer days relative to the sponsor-defined RFSTDTC in Demographics.",
    "codelist": null,
    "sdtm_path": "/mdr/sdtmig/3-4/datasets/BE/variables/BEENDY"
  },
  "BE.BEDUR": {
    "variable": "BEDUR",
    "domain": "BE",
    "domain_label": "Biospecimen Events",
    "label": "Duration of Biospecimen Event",
    "role": "Timing",
    "datatype": "Char",
    "core": "Perm",
    "description": "Collected duration and unit of a biospecimen event. Used only if collected on the CRF and not derived from start and end date/times. Example: P1DT2H (for 1 day, 2 hours).",
    "codelist": null,
    "sdtm_path": "/mdr/sdtmig/3-4/datasets/BE/variables/BEDUR"
  },
  "CE.STUDYID": {
    "variable": "STUDYID",
    "domain": "CE",
    "domain_label": "Clinical Events",
    "label": "Study Identifier",
    "role": "Identifier",
    "datatype": "Char",
    "core": "Req",
    "description": "Unique identifier for a study.",
    "codelist": null,
    "sdtm_path": "/mdr/sdtmig/3-4/datasets/CE/variables/STUDYID"
  },
  "CE.DOMAIN": {
    "variable": "DOMAIN",
    "domain": "CE",
    "domain_label": "Clinical Events",
    "label": "Domain Abbreviation",
    "role": "Identifier",
    "datatype": "Char",
    "core": "Req",
    "description": "Two-character abbreviation for the domain.",
    "codelist": null,
    "sdtm_path": "/mdr/sdtmig/3-4/datasets/CE/variables/DOMAIN"
  },
  "CE.USUBJID": {
    "variable": "USUBJID",
    "domain": "CE",
    "domain_label": "Clinical Events",
    "label": "Unique Subject Identifier",
    "role": "Identifier",
    "datatype": "Char",
    "core": "Req",
    "description": "Identifier used to uniquely identify a subject across all studies for all applications or submissions involving the product.",
    "codelist": null,
    "sdtm_path": "/mdr/sdtmig/3-4/datasets/CE/variables/USUBJID"
  },
  "CE.CESEQ": {
    "variable": "CESEQ",
    "domain": "CE",
    "domain_label": "Clinical Events",
    "label": "Sequence Number",
    "role": "Identifier",
    "datatype": "Num",
    "core": "Req",
    "description": "Sequence number given to ensure uniqueness of subject records within a domain. May be any valid number.",
    "codelist": null,
    "sdtm_path": "/mdr/sdtmig/3-4/datasets/CE/variables/CESEQ"
  },
  "CE.CEGRPID": {
    "variable": "CEGRPID",
    "domain": "CE",
    "domain_label": "Clinical Events",
    "label": "Group ID",
    "role": "Identifier",
    "datatype": "Char",
    "core": "Perm",
    "description": "Used to link together a block of related records for a subject within a domain.",
    "codelist": null,
    "sdtm_path": "/mdr/sdtmig/3-4/datasets/CE/variables/CEGRPID"
  },
  "CE.CEREFID": {
    "variable": "CEREFID",
    "domain": "CE",
    "domain_label": "Clinical Events",
    "label": "Reference ID",
    "role": "Identifier",
    "datatype": "Char",
    "core": "Perm",
    "description": "Internal or external identifier (e.g., lab specimen ID, UUID for an ECG waveform or medical image).",
    "codelist": null,
    "sdtm_path": "/mdr/sdtmig/3-4/datasets/CE/variables/CEREFID"
  },
  "CE.CESPID": {
    "variable": "CESPID",
    "domain": "CE",
    "domain_label": "Clinical Events",
    "label": "Sponsor-Defined Identifier",
    "role": "Identifier",
    "datatype": "Char",
    "core": "Perm",
    "description": "Sponsor-defined identifier.",
    "codelist": null,
    "sdtm_path": "/mdr/sdtmig/3-4/datasets/CE/variables/CESPID"
  },
  "CE.CETERM": {
    "variable": "CETERM",
    "domain": "CE",
    "domain_label": "Clinical Events",
    "label": "Reported Term for the Clinical Event",
    "role": "Topic",
    "datatype": "Char",
    "core": "Req",
    "description": "Term for the medical condition or event. Most likely preprinted on CRF.",
    "codelist": null,
    "sdtm_path": "/mdr/sdtmig/3-4/datasets/CE/variables/CETERM"
  },
  "CE.CEDECOD": {
    "variable": "CEDECOD",
    "domain": "CE",
    "domain_label": "Clinical Events",
    "label": "Dictionary-Derived Term",
    "role": "Synonym Qualifier",
    "datatype": "Char",
    "core": "Perm",
    "description": "Controlled terminology for the name of the clinical event. The sponsor is expected to provide the dictionary name and version used to map the terms utilizing the external codelist element in the Define-XML document.",
    "codelist": null,
    "sdtm_path": "/mdr/sdtmig/3-4/datasets/CE/variables/CEDECOD"
  },
  "CE.CECAT": {
    "variable": "CECAT",
    "domain": "CE",
    "domain_label": "Clinical Events",
    "label": "Category for the Clinical Event",
    "role": "Grouping Qualifier",
    "datatype": "Char",
    "core": "Perm",
    "description": "Used to define a category of related records.",
    "codelist": null,
    "sdtm_path": "/mdr/sdtmig/3-4/datasets/CE/variables/CECAT"
  },
  "CE.CESCAT": {
    "variable": "CESCAT",
    "domain": "CE",
    "domain_label": "Clinical Events",
    "label": "Subcategory for the Clinical Event",
    "role": "Grouping Qualifier",
    "datatype": "Char",
    "core": "Perm",
    "description": "A further categorization of the condition or event.",
    "codelist": null,
    "sdtm_path": "/mdr/sdtmig/3-4/datasets/CE/variables/CESCAT"
  },
  "CE.CEPRESP": {
    "variable": "CEPRESP",
    "domain": "CE",
    "domain_label": "Clinical Events",
    "label": "Clinical Event Pre-specified",
    "role": "Variable Qualifier",
    "datatype": "Char",
    "core": "Perm",
    "description": "Used to indicate whether the event in CETERM was prespecified. Value is \"Y\" for prespecified events and null for spontaneously reported events.",
    "codelist": "/mdr/root/ct/sdtmct/codelists/C66742",
    "sdtm_path": "/mdr/sdtmig/3-4/datasets/CE/variables/CEPRESP"
  },
  "CE.CEOCCUR": {
    "variable": "CEOCCUR",
    "domain": "CE",
    "domain_label": "Clinical Events",
    "label": "Clinical Event Occurrence",
    "role": "Record Qualifier",
    "datatype": "Char",
    "core": "Perm",
    "description": "Used when the occurrence of specific events is solicited, to indicate whether or not a clinical event occurred. Values are null for spontaneously reported events.",
    "codelist": "/mdr/root/ct/sdtmct/codelists/C66742",
    "sdtm_path": "/mdr/sdtmig/3-4/datasets/CE/variables/CEOCCUR"
  },
  "CE.CESTAT": {
    "variable": "CESTAT",
    "domain": "CE",
    "domain_label": "Clinical Events",
    "label": "Completion Status",
    "role": "Record Qualifier",
    "datatype": "Char",
    "core": "Perm",
    "description": "The status indicates that a question from a prespecified list was not answered.",
    "codelist": "/mdr/root/ct/sdtmct/codelists/C66789",
    "sdtm_path": "/mdr/sdtmig/3-4/datasets/CE/variables/CESTAT"
  },
  "CE.CEREASND": {
    "variable": "CEREASND",
    "domain": "CE",
    "domain_label": "Clinical Events",
    "label": "Reason Clinical Event Not Collected",
    "role": "Record Qualifier",
    "datatype": "Char",
    "core": "Perm",
    "description": "Describes the reason clinical event data was not collected. Used in conjunction with CESTAT when value is \"NOT DONE\".",
    "codelist": null,
    "sdtm_path": "/mdr/sdtmig/3-4/datasets/CE/variables/CEREASND"
  },
  "CE.CEBODSYS": {
    "variable": "CEBODSYS",
    "domain": "CE",
    "domain_label": "Clinical Events",
    "label": "Body System or Organ Class",
    "role": "Record Qualifier",
    "datatype": "Char",
    "core": "Perm",
    "description": "Dictionary-derived. Body system or organ class that is involved in an event or measurement from a standard hierarchy (e.g., MedDRA). When using a multi-axial dictionary such as MedDRA, this should contain the SOC used for the sponsor's analyses and summary tables, which may not necessarily be the primary SOC.",
    "codelist": null,
    "sdtm_path": "/mdr/sdtmig/3-4/datasets/CE/variables/CEBODSYS"
  },
  "CE.CESEV": {
    "variable": "CESEV",
    "domain": "CE",
    "domain_label": "Clinical Events",
    "label": "Severity/Intensity",
    "role": "Record Qualifier",
    "datatype": "Char",
    "core": "Perm",
    "description": "The severity or intensity of the event. Examples: \"MILD\", \"MODERATE\", \"SEVERE\".",
    "codelist": "/mdr/root/ct/sdtmct/codelists/C165643",
    "sdtm_path": "/mdr/sdtmig/3-4/datasets/CE/variables/CESEV"
  },
  "CE.CETOXGR": {
    "variable": "CETOXGR",
    "domain": "CE",
    "domain_label": "Clinical Events",
    "label": "Standard Toxicity Grade",
    "role": "Record Qualifier",
    "datatype": "Char",
    "core": "Perm",
    "description": "Toxicity grade according to a standard toxicity scale (e.g., Common Terminology Criteria for Adverse Events (CTCAE) v3.0). Sponsor should specify name of the scale and version used in the metadata. If value is from a numeric scale, represent only the number (e.g., \"2\", not \"Grade 2\").",
    "codelist": null,
    "sdtm_path": "/mdr/sdtmig/3-4/datasets/CE/variables/CETOXGR"
  },
  "CE.TAETORD": {
    "variable": "TAETORD",
    "domain": "CE",
    "domain_label": "Clinical Events",
    "label": "Planned Order of Element within Arm",
    "role": "Timing",
    "datatype": "Num",
    "core": "Perm",
    "description": "Number that gives the planned order of the element within the arm for the element in which the clinical event started.",
    "codelist": null,
    "sdtm_path": "/mdr/sdtmig/3-4/datasets/CE/variables/TAETORD"
  },
  "CE.EPOCH": {
    "variable": "EPOCH",
    "domain": "CE",
    "domain_label": "Clinical Events",
    "label": "Epoch",
    "role": "Timing",
    "datatype": "Char",
    "core": "Perm",
    "description": "Epoch associated with the start date/time of the clinical event.",
    "codelist": "/mdr/root/ct/sdtmct/codelists/C99079",
    "sdtm_path": "/mdr/sdtmig/3-4/datasets/CE/variables/EPOCH"
  },
  "CE.CEDTC": {
    "variable": "CEDTC",
    "domain": "CE",
    "domain_label": "Clinical Events",
    "label": "Date/Time of Event Collection",
    "role": "Timing",
    "datatype": "Char",
    "core": "Perm",
    "description": "Collection date and time for the clinical event observation represented in ISO 8601 character format.",
    "codelist": null,
    "sdtm_path": "/mdr/sdtmig/3-4/datasets/CE/variables/CEDTC"
  },
  "CE.CESTDTC": {
    "variable": "CESTDTC",
    "domain": "CE",
    "domain_label": "Clinical Events",
    "label": "Start Date/Time of Clinical Event",
    "role": "Timing",
    "datatype": "Char",
    "core": "Perm",
    "description": "Start date/time of the clinical event represented in ISO 8601 character format.",
    "codelist": null,
    "sdtm_path": "/mdr/sdtmig/3-4/datasets/CE/variables/CESTDTC"
  },
  "CE.CEENDTC": {
    "variable": "CEENDTC",
    "domain": "CE",
    "domain_label": "Clinical Events",
    "label": "End Date/Time of Clinical Event",
    "role": "Timing",
    "datatype": "Char",
    "core": "Perm",
    "description": "End date/time of the clinical event, represented in ISO 8601 character format.",
    "codelist": null,
    "sdtm_path": "/mdr/sdtmig/3-4/datasets/CE/variables/CEENDTC"
  },
  "CE.CEDY": {
    "variable": "CEDY",
    "domain": "CE",
    "domain_label": "Clinical Events",
    "label": "Study Day of Event Collection",
    "role": "Timing",
    "datatype": "Num",
    "core": "Perm",
    "description": "Study day of clinical event collection, measured as integer days. Algorithm for calculations must be relative to the sponsor-defined RFSTDTC variable in Demographics. This formula should be consistent across the submission.",
    "codelist": null,
    "sdtm_path": "/mdr/sdtmig/3-4/datasets/CE/variables/CEDY"
  },
  "CE.CESTDY": {
    "variable": "CESTDY",
    "domain": "CE",
    "domain_label": "Clinical Events",
    "label": "Study Day of Start of Event",
    "role": "Timing",
    "datatype": "Num",
    "core": "Perm",
    "description": "Actual study day of start of the clinical event expressed in integer days relative to the sponsor-defined RFSTDTC in Demographics.",
    "codelist": null,
    "sdtm_path": "/mdr/sdtmig/3-4/datasets/CE/variables/CESTDY"
  },
  "CE.CEENDY": {
    "variable": "CEENDY",
    "domain": "CE",
    "domain_label": "Clinical Events",
    "label": "Study Day of End of Event",
    "role": "Timing",
    "datatype": "Num",
    "core": "Perm",
    "description": "Actual study day of end of the clinical event expressed in integer days relative to the sponsor-defined RFSTDTC in Demographics.",
    "codelist": null,
    "sdtm_path": "/mdr/sdtmig/3-4/datasets/CE/variables/CEENDY"
  },
  "CE.CESTRF": {
    "variable": "CESTRF",
    "domain": "CE",
    "domain_label": "Clinical Events",
    "label": "Start Relative to Reference Period",
    "role": "Timing",
    "datatype": "Char",
    "core": "Perm",
    "description": "Describes the start of the clinical event relative to the sponsor-defined reference period. The sponsor-defined reference period is a continuous period of time defined by a discrete starting point and a discrete ending point (represented by RFSTDTC and RFENDTC in Demographics). \\n Not all values of the codelist are allowable for this variable. See Section 4.4.7, Use of Relative Timing Variables.",
    "codelist": "/mdr/root/ct/sdtmct/codelists/C66728",
    "sdtm_path": "/mdr/sdtmig/3-4/datasets/CE/variables/CESTRF"
  },
  "CE.CEENRF": {
    "variable": "CEENRF",
    "domain": "CE",
    "domain_label": "Clinical Events",
    "label": "End Relative to Reference Period",
    "role": "Timing",
    "datatype": "Char",
    "core": "Perm",
    "description": "Describes the end of the event relative to the sponsor-defined reference period. The sponsor-defined reference period is a continuous period of time defined by a discrete starting point and a discrete ending point (represented by RFSTDTC and RFENDTC in Demographics). \\n Not all values of the codelist are allowable for this variable. See Section 4.4.7, Use of Relative Timing Variables.",
    "codelist": "/mdr/root/ct/sdtmct/codelists/C66728",
    "sdtm_path": "/mdr/sdtmig/3-4/datasets/CE/variables/CEENRF"
  },
  "CE.CESTRTPT": {
    "variable": "CESTRTPT",
    "domain": "CE",
    "domain_label": "Clinical Events",
    "label": "Start Relative to Reference Time Point",
    "role": "Timing",
    "datatype": "Char",
    "core": "Perm",
    "description": "Identifies the start of the observation as being before or after the reference time point defined by variable CESTTPT. \\n Not all values of the codelist are allowable for this variable. See Section 4.4.7, Use of Relative Timing Variables.",
    "codelist": "/mdr/root/ct/sdtmct/codelists/C66728",
    "sdtm_path": "/mdr/sdtmig/3-4/datasets/CE/variables/CESTRTPT"
  },
  "CE.CESTTPT": {
    "variable": "CESTTPT",
    "domain": "CE",
    "domain_label": "Clinical Events",
    "label": "Start Reference Time Point",
    "role": "Timing",
    "datatype": "Char",
    "core": "Perm",
    "description": "Description or date/time in ISO 8601 character format of the sponsor-defined reference point referred to by --STRTPT. Examples: \"2003-12-15\", \"VISIT 1\".",
    "codelist": null,
    "sdtm_path": "/mdr/sdtmig/3-4/datasets/CE/variables/CESTTPT"
  },
  "CE.CEENRTPT": {
    "variable": "CEENRTPT",
    "domain": "CE",
    "domain_label": "Clinical Events",
    "label": "End Relative to Reference Time Point",
    "role": "Timing",
    "datatype": "Char",
    "core": "Perm",
    "description": "Identifies the end of the observation as being before or after the sponsor-defined reference time point defined by variable CEENTPT. \\n Not all values of the codelist are allowable for this variable. See Section 4.4.7, Use of Relative Timing Variables.",
    "codelist": "/mdr/root/ct/sdtmct/codelists/C66728",
    "sdtm_path": "/mdr/sdtmig/3-4/datasets/CE/variables/CEENRTPT"
  },
  "CE.CEENTPT": {
    "variable": "CEENTPT",
    "domain": "CE",
    "domain_label": "Clinical Events",
    "label": "End Reference Time Point",
    "role": "Timing",
    "datatype": "Char",
    "core": "Perm",
    "description": "Description or date/time in ISO 8601 character format of the reference point referred to by CEENRTPT. Examples: \"2003-12-25\", \"VISIT 2\".",
    "codelist": null,
    "sdtm_path": "/mdr/sdtmig/3-4/datasets/CE/variables/CEENTPT"
  },
  "DS.STUDYID": {
    "variable": "STUDYID",
    "domain": "DS",
    "domain_label": "Disposition",
    "label": "Study Identifier",
    "role": "Identifier",
    "datatype": "Char",
    "core": "Req",
    "description": "Unique identifier for a study.",
    "codelist": null,
    "sdtm_path": "/mdr/sdtmig/3-4/datasets/DS/variables/STUDYID"
  },
  "DS.DOMAIN": {
    "variable": "DOMAIN",
    "domain": "DS",
    "domain_label": "Disposition",
    "label": "Domain Abbreviation",
    "role": "Identifier",
    "datatype": "Char",
    "core": "Req",
    "description": "Two-character abbreviation for the domain.",
    "codelist": null,
    "sdtm_path": "/mdr/sdtmig/3-4/datasets/DS/variables/DOMAIN"
  },
  "DS.USUBJID": {
    "variable": "USUBJID",
    "domain": "DS",
    "domain_label": "Disposition",
    "label": "Unique Subject Identifier",
    "role": "Identifier",
    "datatype": "Char",
    "core": "Req",
    "description": "Identifier used to uniquely identify a subject across all studies for all applications or submissions involving the product.",
    "codelist": null,
    "sdtm_path": "/mdr/sdtmig/3-4/datasets/DS/variables/USUBJID"
  },
  "DS.DSSEQ": {
    "variable": "DSSEQ",
    "domain": "DS",
    "domain_label": "Disposition",
    "label": "Sequence Number",
    "role": "Identifier",
    "datatype": "Num",
    "core": "Req",
    "description": "Sequence number given to ensure uniqueness of subject records within a domain. May be any valid number.",
    "codelist": null,
    "sdtm_path": "/mdr/sdtmig/3-4/datasets/DS/variables/DSSEQ"
  },
  "DS.DSGRPID": {
    "variable": "DSGRPID",
    "domain": "DS",
    "domain_label": "Disposition",
    "label": "Group ID",
    "role": "Identifier",
    "datatype": "Char",
    "core": "Perm",
    "description": "Used to tie together a block of related records in a single domain for a subject.",
    "codelist": null,
    "sdtm_path": "/mdr/sdtmig/3-4/datasets/DS/variables/DSGRPID"
  },
  "DS.DSREFID": {
    "variable": "DSREFID",
    "domain": "DS",
    "domain_label": "Disposition",
    "label": "Reference ID",
    "role": "Identifier",
    "datatype": "Char",
    "core": "Perm",
    "description": "Internal or external identifier.",
    "codelist": null,
    "sdtm_path": "/mdr/sdtmig/3-4/datasets/DS/variables/DSREFID"
  },
  "DS.DSSPID": {
    "variable": "DSSPID",
    "domain": "DS",
    "domain_label": "Disposition",
    "label": "Sponsor-Defined Identifier",
    "role": "Identifier",
    "datatype": "Char",
    "core": "Perm",
    "description": "Sponsor-defined reference number. May be preprinted on the CRF as an explicit line identifier or defined in the sponsor's operational database. Example: Line number on a Disposition page.",
    "codelist": null,
    "sdtm_path": "/mdr/sdtmig/3-4/datasets/DS/variables/DSSPID"
  },
  "DS.DSTERM": {
    "variable": "DSTERM",
    "domain": "DS",
    "domain_label": "Disposition",
    "label": "Reported Term for the Disposition Event",
    "role": "Topic",
    "datatype": "Char",
    "core": "Req",
    "description": "Verbatim name of the event or protocol milestone. Some terms in DSTERM will match DSDECOD, but others, such as \"Subject moved\", will map to controlled terminology in DSDECOD, such as \"LOST TO FOLLOW-UP\".",
    "codelist": null,
    "sdtm_path": "/mdr/sdtmig/3-4/datasets/DS/variables/DSTERM"
  },
  "DS.DSDECOD": {
    "variable": "DSDECOD",
    "domain": "DS",
    "domain_label": "Disposition",
    "label": "Standardized Disposition Term",
    "role": "Synonym Qualifier",
    "datatype": "Char",
    "core": "Req",
    "description": "Controlled terminology for the name of disposition event or protocol milestone. Examples of protocol milestones: \"INFORMED CONSENT OBTAINED\", \"RANDOMIZED\". There are separate codelists used for DSDECOD where the choice depends on the value of DSCAT. Codelist \"NCOMPLT\" is used for disposition events, codelist \"PROTMLST\" is used for protocol milestones, and codelist \"OTHEVENT\" is used for other events.",
    "codelist": "/mdr/root/ct/sdtmct/codelists/C66727",
    "sdtm_path": "/mdr/sdtmig/3-4/datasets/DS/variables/DSDECOD"
  },
  "DS.DSCAT": {
    "variable": "DSCAT",
    "domain": "DS",
    "domain_label": "Disposition",
    "label": "Category for Disposition Event",
    "role": "Grouping Qualifier",
    "datatype": "Char",
    "core": "Exp",
    "description": "Used to define a category of related records.",
    "codelist": "/mdr/root/ct/sdtmct/codelists/C74558",
    "sdtm_path": "/mdr/sdtmig/3-4/datasets/DS/variables/DSCAT"
  },
  "DS.DSSCAT": {
    "variable": "DSSCAT",
    "domain": "DS",
    "domain_label": "Disposition",
    "label": "Subcategory for Disposition Event",
    "role": "Grouping Qualifier",
    "datatype": "Char",
    "core": "Perm",
    "description": "A further categorization of DSCAT (e.g., \"STUDY PARTICIPATION\", \"STUDY TREATMENT\" when DSCAT = \"DISPOSITION EVENT\"). The variable may be subject to controlled terminology for other categories of disposition event records.",
    "codelist": "/mdr/root/ct/sdtmct/codelists/C170443",
    "sdtm_path": "/mdr/sdtmig/3-4/datasets/DS/variables/DSSCAT"
  },
  "DS.EPOCH": {
    "variable": "EPOCH",
    "domain": "DS",
    "domain_label": "Disposition",
    "label": "Epoch",
    "role": "Timing",
    "datatype": "Char",
    "core": "Perm",
    "description": "Epoch associated with the start date/time of the event.",
    "codelist": "/mdr/root/ct/sdtmct/codelists/C99079",
    "sdtm_path": "/mdr/sdtmig/3-4/datasets/DS/variables/EPOCH"
  },
  "DS.DSDTC": {
    "variable": "DSDTC",
    "domain": "DS",
    "domain_label": "Disposition",
    "label": "Date/Time of Collection",
    "role": "Timing",
    "datatype": "Char",
    "core": "Perm",
    "description": "Collection date and time of the disposition observation represented in ISO 8601 character format.",
    "codelist": null,
    "sdtm_path": "/mdr/sdtmig/3-4/datasets/DS/variables/DSDTC"
  },
  "DS.DSSTDTC": {
    "variable": "DSSTDTC",
    "domain": "DS",
    "domain_label": "Disposition",
    "label": "Start Date/Time of Disposition Event",
    "role": "Timing",
    "datatype": "Char",
    "core": "Exp",
    "description": "Start date/time of the disposition event in ISO 8601 character format.",
    "codelist": null,
    "sdtm_path": "/mdr/sdtmig/3-4/datasets/DS/variables/DSSTDTC"
  },
  "DS.DSDY": {
    "variable": "DSDY",
    "domain": "DS",
    "domain_label": "Disposition",
    "label": "Study Day of Collection",
    "role": "Timing",
    "datatype": "Num",
    "core": "Perm",
    "description": "Study day of collection of event relative to the sponsor-defined RFSTDTC.",
    "codelist": null,
    "sdtm_path": "/mdr/sdtmig/3-4/datasets/DS/variables/DSDY"
  },
  "DS.DSSTDY": {
    "variable": "DSSTDY",
    "domain": "DS",
    "domain_label": "Disposition",
    "label": "Study Day of Start of Disposition Event",
    "role": "Timing",
    "datatype": "Num",
    "core": "Exp",
    "description": "Study day of start of event relative to the sponsor-defined RFSTDTC.",
    "codelist": null,
    "sdtm_path": "/mdr/sdtmig/3-4/datasets/DS/variables/DSSTDY"
  },
  "DV.STUDYID": {
    "variable": "STUDYID",
    "domain": "DV",
    "domain_label": "Protocol Deviations",
    "label": "Study Identifier",
    "role": "Identifier",
    "datatype": "Char",
    "core": "Req",
    "description": "Unique identifier for a study.",
    "codelist": null,
    "sdtm_path": "/mdr/sdtmig/3-4/datasets/DV/variables/STUDYID"
  },
  "DV.DOMAIN": {
    "variable": "DOMAIN",
    "domain": "DV",
    "domain_label": "Protocol Deviations",
    "label": "Domain Abbreviation",
    "role": "Identifier",
    "datatype": "Char",
    "core": "Req",
    "description": "Two-character abbreviation for the domain.",
    "codelist": null,
    "sdtm_path": "/mdr/sdtmig/3-4/datasets/DV/variables/DOMAIN"
  },
  "DV.USUBJID": {
    "variable": "USUBJID",
    "domain": "DV",
    "domain_label": "Protocol Deviations",
    "label": "Unique Subject Identifier",
    "role": "Identifier",
    "datatype": "Char",
    "core": "Req",
    "description": "Identifier used to uniquely identify a subject across all studies for all applications or submissions involving the product.",
    "codelist": null,
    "sdtm_path": "/mdr/sdtmig/3-4/datasets/DV/variables/USUBJID"
  },
  "DV.DVSEQ": {
    "variable": "DVSEQ",
    "domain": "DV",
    "domain_label": "Protocol Deviations",
    "label": "Sequence Number",
    "role": "Identifier",
    "datatype": "Num",
    "core": "Req",
    "description": "Sequence number given to ensure uniqueness of subject records within a domain. May be any valid number.",
    "codelist": null,
    "sdtm_path": "/mdr/sdtmig/3-4/datasets/DV/variables/DVSEQ"
  },
  "DV.DVREFID": {
    "variable": "DVREFID",
    "domain": "DV",
    "domain_label": "Protocol Deviations",
    "label": "Reference ID",
    "role": "Identifier",
    "datatype": "Char",
    "core": "Perm",
    "description": "Internal or external identifier.",
    "codelist": null,
    "sdtm_path": "/mdr/sdtmig/3-4/datasets/DV/variables/DVREFID"
  },
  "DV.DVSPID": {
    "variable": "DVSPID",
    "domain": "DV",
    "domain_label": "Protocol Deviations",
    "label": "Sponsor-Defined Identifier",
    "role": "Identifier",
    "datatype": "Char",
    "core": "Perm",
    "description": "Sponsor-defined reference number. May be preprinted on the CRF as an explicit line identifier or defined in the sponsor's operational database. Example: Line number on a CRF page.",
    "codelist": null,
    "sdtm_path": "/mdr/sdtmig/3-4/datasets/DV/variables/DVSPID"
  },
  "DV.DVTERM": {
    "variable": "DVTERM",
    "domain": "DV",
    "domain_label": "Protocol Deviations",
    "label": "Protocol Deviation Term",
    "role": "Topic",
    "datatype": "Char",
    "core": "Req",
    "description": "Verbatim name of the protocol deviation criterion. Example: \"IVRS PROCESS DEVIATION - NO DOSE CALL PERFORMED\". DVTERM values will map to the controlled terminology in DVDECOD (e.g., \"TREATMENT DEVIATION\").",
    "codelist": null,
    "sdtm_path": "/mdr/sdtmig/3-4/datasets/DV/variables/DVTERM"
  },
  "DV.DVDECOD": {
    "variable": "DVDECOD",
    "domain": "DV",
    "domain_label": "Protocol Deviations",
    "label": "Protocol Deviation Coded Term",
    "role": "Synonym Qualifier",
    "datatype": "Char",
    "core": "Perm",
    "description": "Controlled terminology for the name of the protocol deviation. Examples: \"SUBJECT NOT WITHDRAWN AS PER PROTOCOL\", \"SELECTION CRITERIA NOT MET\", \"EXCLUDED CONCOMITANT MEDICATION\", \"TREATMENT DEVIATION\".",
    "codelist": null,
    "sdtm_path": "/mdr/sdtmig/3-4/datasets/DV/variables/DVDECOD"
  },
  "DV.DVCAT": {
    "variable": "DVCAT",
    "domain": "DV",
    "domain_label": "Protocol Deviations",
    "label": "Category for Protocol Deviation",
    "role": "Grouping Qualifier",
    "datatype": "Char",
    "core": "Perm",
    "description": "Category of the protocol deviation criterion.",
    "codelist": null,
    "sdtm_path": "/mdr/sdtmig/3-4/datasets/DV/variables/DVCAT"
  },
  "DV.DVSCAT": {
    "variable": "DVSCAT",
    "domain": "DV",
    "domain_label": "Protocol Deviations",
    "label": "Subcategory for Protocol Deviation",
    "role": "Grouping Qualifier",
    "datatype": "Char",
    "core": "Perm",
    "description": "A further categorization of the protocol deviation.",
    "codelist": null,
    "sdtm_path": "/mdr/sdtmig/3-4/datasets/DV/variables/DVSCAT"
  },
  "DV.TAETORD": {
    "variable": "TAETORD",
    "domain": "DV",
    "domain_label": "Protocol Deviations",
    "label": "Planned Order of Element within Arm",
    "role": "Timing",
    "datatype": "Num",
    "core": "Perm",
    "description": "Number that gives the planned order of the element within the arm.",
    "codelist": null,
    "sdtm_path": "/mdr/sdtmig/3-4/datasets/DV/variables/TAETORD"
  },
  "DV.EPOCH": {
    "variable": "EPOCH",
    "domain": "DV",
    "domain_label": "Protocol Deviations",
    "label": "Epoch",
    "role": "Timing",
    "datatype": "Char",
    "core": "Perm",
    "description": "Epoch associated with the start date/time of the deviation. Examples: \"TREATMENT\", \"SCREENING\", \"FOLLOW-UP\".",
    "codelist": "/mdr/root/ct/sdtmct/codelists/C99079",
    "sdtm_path": "/mdr/sdtmig/3-4/datasets/DV/variables/EPOCH"
  },
  "DV.DVSTDTC": {
    "variable": "DVSTDTC",
    "domain": "DV",
    "domain_label": "Protocol Deviations",
    "label": "Start Date/Time of Deviation",
    "role": "Timing",
    "datatype": "Char",
    "core": "Perm",
    "description": "Start date/time of deviation represented in ISO 8601 character format.",
    "codelist": null,
    "sdtm_path": "/mdr/sdtmig/3-4/datasets/DV/variables/DVSTDTC"
  },
  "DV.DVENDTC": {
    "variable": "DVENDTC",
    "domain": "DV",
    "domain_label": "Protocol Deviations",
    "label": "End Date/Time of Deviation",
    "role": "Timing",
    "datatype": "Char",
    "core": "Perm",
    "description": "End date/time of deviation represented in ISO 8601 character format.",
    "codelist": null,
    "sdtm_path": "/mdr/sdtmig/3-4/datasets/DV/variables/DVENDTC"
  },
  "DV.DVSTDY": {
    "variable": "DVSTDY",
    "domain": "DV",
    "domain_label": "Protocol Deviations",
    "label": "Study Day of Start of Deviation Event",
    "role": "Timing",
    "datatype": "Num",
    "core": "Perm",
    "description": "Study day of start of event relative to the sponsor-defined RFSTDTC.",
    "codelist": null,
    "sdtm_path": "/mdr/sdtmig/3-4/datasets/DV/variables/DVSTDY"
  },
  "DV.DVENDY": {
    "variable": "DVENDY",
    "domain": "DV",
    "domain_label": "Protocol Deviations",
