{"metadata": {"dbt_schema_version": "https://schemas.getdbt.com/dbt/run-results/v6.json", "dbt_version": "1.10.4", "generated_at": "2026-05-11T02:49:45.992742Z", "invocation_id": "e2bf2b0d-c5d4-4c60-8431-513f65750555", "invocation_started_at": "2026-05-11T02:49:43.534233Z", "env": {}}, "results": [{"status": "success", "timing": [{"name": "compile", "started_at": "2026-05-11T02:49:45.749101Z", "completed_at": "2026-05-11T02:49:45.773078Z"}, {"name": "execute", "started_at": "2026-05-11T02:49:45.773867Z", "completed_at": "2026-05-11T02:49:45.979430Z"}], "thread_id": "Thread-1 (worker)", "execution_time": 0.2327439785003662, "adapter_response": {"_message": "OK"}, "message": "OK", "failures": null, "unique_id": "model.VEXIN_03.dm", "compiled": true, "compiled_code": "\n\n\n-- ============================================\n-- Step 2: Build SDTM Domain Variables\n-- ============================================\nSELECT\n    raw_dm.studyid AS STUDYID\n    ,raw_dm.domain AS DOMAIN\n    -- Injected custom: derive_usubjid.sql\n    ,CASE\n    WHEN prevstudy IS NULL OR TRIM(CAST(prevstudy AS VARCHAR)) = '' THEN\n        CASE\n            WHEN prevsubj IS NOT NULL AND TRIM(CAST(prevsubj AS VARCHAR)) <> '' THEN\n                -- ERROR: prevstudy is null but prevsubj is not\n                NULL\n            WHEN rescreennum_raw IS NOT NULL AND TRIM(CAST(rescreennum_raw AS VARCHAR)) <> '' THEN\n                CONCAT(project, '-', rescreennum_raw)\n            ELSE\n                CONCAT(project, '-', subject)\n        END\n    ELSE\n        CASE\n            WHEN prevsubj IS NULL OR TRIM(CAST(prevsubj AS VARCHAR)) = '' THEN\n                -- ERROR: prevstudy not null but prevsubj is null\n                NULL\n            ELSE\n                CONCAT(prevstudy, '-', prevsubj)\n        END\n    END AS USUBJID\n    ,raw_dm.subject AS SUBJID\n    ,NULL AS RFSTDTC\n    ,NULL AS RFENDTC\n    ,NULL AS RFXSTDTC\n    ,NULL AS RFXENDTC\n    ,NULL AS RFCSTDTC\n    ,NULL AS RFCENDTC\n    -- Injected custom: derive_rficdtc.sql\n    ,\n    CASE \n        WHEN RFICDTC_RAW IS NULL OR TRIM(RFICDTC_RAW) = '' THEN NULL\n        ELSE STRFTIME(STRPTIME(RFICDTC_RAW, '%m/%d/%Y'), '%Y-%m-%d')\n    END\n AS RFICDTC\n    ,NULL AS RFPENDTC\n    ,NULL AS DTHDTC\n    ,NULL AS DTHFL\n    ,raw_dm.siteid AS SITEID\n    ,NULL AS INVID\n    ,NULL AS INVNAM\n    -- Injected custom: derive_brthdtc.sql\n    ,\n    CASE \n        WHEN BRTHDTC_RAW IS NULL OR TRIM(BRTHDTC_RAW) = '' THEN NULL\n        ELSE STRFTIME(STRPTIME(BRTHDTC_RAW, '%m/%d/%Y'), '%Y-%m-%d')\n    END\n AS BRTHDTC\n    ,NULL AS AGE  -- TODO: Derived variable AGE needs a derivation\n    ,NULL AS AGEU\n    ,raw_dm.sex AS SEX\n    -- Injected custom: derive_race.sql\n    ,CASE\n    WHEN COALESCE(raceoth, '') = ''\n         THEN CASE\n             WHEN COALESCE(race_aian, 0) + COALESCE(race_asian, 0) + COALESCE(race_black, 0) + COALESCE(race_nhpi, 0) + COALESCE(race_white, 0) > 1\n                 THEN 'MULTIPLE'\n             WHEN race_aian = 1 THEN 'AMERICAN INDIAN OR ALASKA NATIVE'\n             WHEN race_asian = 1 THEN 'ASIAN'\n             WHEN race_black = 1 THEN 'BLACK OR AFRICAN AMERICAN'\n             WHEN race_nhpi = 1 THEN 'NATIVE HAWAIIAN OR OTHER PACIFIC ISLANDER'\n             WHEN race_white = 1 THEN 'WHITE'\n             ELSE NULL\n         END\n    WHEN COALESCE(raceoth, '') <> ''\n         THEN CASE\n             WHEN COALESCE(race_aian, 0) + COALESCE(race_asian, 0) + COALESCE(race_black, 0) + COALESCE(race_nhpi, 0) + COALESCE(race_white, 0) >= 1\n                 THEN 'MULTIPLE'\n             ELSE 'OTHER'\n         END\n    END AS RACE\n    ,raw_dm.ethnic AS ETHNIC\n    ,NULL AS ARMCD  -- TODO: Derived variable ARMCD needs a derivation\n    ,NULL AS ARM  -- TODO: Derived variable ARM needs a derivation\n    ,NULL AS ACTARMCD  -- TODO: Derived variable ACTARMCD needs a derivation\n    ,NULL AS ACTARM  -- TODO: Derived variable ACTARM needs a derivation\n    ,NULL AS ARMNRS  -- TODO: Derived variable ARMNRS needs a derivation\n    ,NULL AS ACTARMUD  -- TODO: Derived variable ACTARMUD needs a derivation\n    ,raw_dm.country AS COUNTRY\n    -- Injected custom: derive_dmdtc.sql\n    ,\n    CASE \n        WHEN DMDTC_RAW IS NULL OR TRIM(DMDTC_RAW) = '' THEN NULL\n        ELSE STRFTIME(STRPTIME(DMDTC_RAW, '%m/%d/%Y'), '%Y-%m-%d')\n    END\n AS DMDTC\n    ,NULL AS DMDY\n    ,NULL AS QVAL\n    -- Injected custom: derive_race.sql\n    ,CASE\n    WHEN COALESCE(raceoth, '') = ''\n         THEN CASE\n             WHEN COALESCE(race_aian, 0) + COALESCE(race_asian, 0) + COALESCE(race_black, 0) + COALESCE(race_nhpi, 0) + COALESCE(race_white, 0) > 1\n                 THEN 'MULTIPLE'\n             WHEN race_aian = 1 THEN 'AMERICAN INDIAN OR ALASKA NATIVE'\n             WHEN race_asian = 1 THEN 'ASIAN'\n             WHEN race_black = 1 THEN 'BLACK OR AFRICAN AMERICAN'\n             WHEN race_nhpi = 1 THEN 'NATIVE HAWAIIAN OR OTHER PACIFIC ISLANDER'\n             WHEN race_white = 1 THEN 'WHITE'\n             ELSE NULL\n         END\n    WHEN COALESCE(raceoth, '') <> ''\n         THEN CASE\n             WHEN COALESCE(race_aian, 0) + COALESCE(race_asian, 0) + COALESCE(race_black, 0) + COALESCE(race_nhpi, 0) + COALESCE(race_white, 0) >= 1\n                 THEN 'MULTIPLE'\n             ELSE 'OTHER'\n         END\n    END AS RACE\n    -- Injected custom: derive_race.sql\n    ,CASE\n    WHEN COALESCE(raceoth, '') = ''\n         THEN CASE\n             WHEN COALESCE(race_aian, 0) + COALESCE(race_asian, 0) + COALESCE(race_black, 0) + COALESCE(race_nhpi, 0) + COALESCE(race_white, 0) > 1\n                 THEN 'MULTIPLE'\n             WHEN race_aian = 1 THEN 'AMERICAN INDIAN OR ALASKA NATIVE'\n             WHEN race_asian = 1 THEN 'ASIAN'\n             WHEN race_black = 1 THEN 'BLACK OR AFRICAN AMERICAN'\n             WHEN race_nhpi = 1 THEN 'NATIVE HAWAIIAN OR OTHER PACIFIC ISLANDER'\n             WHEN race_white = 1 THEN 'WHITE'\n             ELSE NULL\n         END\n    WHEN COALESCE(raceoth, '') <> ''\n         THEN CASE\n             WHEN COALESCE(race_aian, 0) + COALESCE(race_asian, 0) + COALESCE(race_black, 0) + COALESCE(race_nhpi, 0) + COALESCE(race_white, 0) >= 1\n                 THEN 'MULTIPLE'\n             ELSE 'OTHER'\n         END\n    END AS RACE\n    -- Injected custom: derive_race.sql\n    ,CASE\n    WHEN COALESCE(raceoth, '') = ''\n         THEN CASE\n             WHEN COALESCE(race_aian, 0) + COALESCE(race_asian, 0) + COALESCE(race_black, 0) + COALESCE(race_nhpi, 0) + COALESCE(race_white, 0) > 1\n                 THEN 'MULTIPLE'\n             WHEN race_aian = 1 THEN 'AMERICAN INDIAN OR ALASKA NATIVE'\n             WHEN race_asian = 1 THEN 'ASIAN'\n             WHEN race_black = 1 THEN 'BLACK OR AFRICAN AMERICAN'\n             WHEN race_nhpi = 1 THEN 'NATIVE HAWAIIAN OR OTHER PACIFIC ISLANDER'\n             WHEN race_white = 1 THEN 'WHITE'\n             ELSE NULL\n         END\n    WHEN COALESCE(raceoth, '') <> ''\n         THEN CASE\n             WHEN COALESCE(race_aian, 0) + COALESCE(race_asian, 0) + COALESCE(race_black, 0) + COALESCE(race_nhpi, 0) + COALESCE(race_white, 0) >= 1\n                 THEN 'MULTIPLE'\n             ELSE 'OTHER'\n         END\n    END AS RACE\n    -- Injected custom: derive_race.sql\n    ,CASE\n    WHEN COALESCE(raceoth, '') = ''\n         THEN CASE\n             WHEN COALESCE(race_aian, 0) + COALESCE(race_asian, 0) + COALESCE(race_black, 0) + COALESCE(race_nhpi, 0) + COALESCE(race_white, 0) > 1\n                 THEN 'MULTIPLE'\n             WHEN race_aian = 1 THEN 'AMERICAN INDIAN OR ALASKA NATIVE'\n             WHEN race_asian = 1 THEN 'ASIAN'\n             WHEN race_black = 1 THEN 'BLACK OR AFRICAN AMERICAN'\n             WHEN race_nhpi = 1 THEN 'NATIVE HAWAIIAN OR OTHER PACIFIC ISLANDER'\n             WHEN race_white = 1 THEN 'WHITE'\n             ELSE NULL\n         END\n    WHEN COALESCE(raceoth, '') <> ''\n         THEN CASE\n             WHEN COALESCE(race_aian, 0) + COALESCE(race_asian, 0) + COALESCE(race_black, 0) + COALESCE(race_nhpi, 0) + COALESCE(race_white, 0) >= 1\n                 THEN 'MULTIPLE'\n             ELSE 'OTHER'\n         END\n    END AS RACE\n    -- Injected custom: derive_race.sql\n    ,CASE\n    WHEN COALESCE(raceoth, '') = ''\n         THEN CASE\n             WHEN COALESCE(race_aian, 0) + COALESCE(race_asian, 0) + COALESCE(race_black, 0) + COALESCE(race_nhpi, 0) + COALESCE(race_white, 0) > 1\n                 THEN 'MULTIPLE'\n             WHEN race_aian = 1 THEN 'AMERICAN INDIAN OR ALASKA NATIVE'\n             WHEN race_asian = 1 THEN 'ASIAN'\n             WHEN race_black = 1 THEN 'BLACK OR AFRICAN AMERICAN'\n             WHEN race_nhpi = 1 THEN 'NATIVE HAWAIIAN OR OTHER PACIFIC ISLANDER'\n             WHEN race_white = 1 THEN 'WHITE'\n             ELSE NULL\n         END\n    WHEN COALESCE(raceoth, '') <> ''\n         THEN CASE\n             WHEN COALESCE(race_aian, 0) + COALESCE(race_asian, 0) + COALESCE(race_black, 0) + COALESCE(race_nhpi, 0) + COALESCE(race_white, 0) >= 1\n                 THEN 'MULTIPLE'\n             ELSE 'OTHER'\n         END\n    END AS RACE\n    -- Injected custom: derive_race.sql\n    ,CASE\n    WHEN COALESCE(raceoth, '') = ''\n         THEN CASE\n             WHEN COALESCE(race_aian, 0) + COALESCE(race_asian, 0) + COALESCE(race_black, 0) + COALESCE(race_nhpi, 0) + COALESCE(race_white, 0) > 1\n                 THEN 'MULTIPLE'\n             WHEN race_aian = 1 THEN 'AMERICAN INDIAN OR ALASKA NATIVE'\n             WHEN race_asian = 1 THEN 'ASIAN'\n             WHEN race_black = 1 THEN 'BLACK OR AFRICAN AMERICAN'\n             WHEN race_nhpi = 1 THEN 'NATIVE HAWAIIAN OR OTHER PACIFIC ISLANDER'\n             WHEN race_white = 1 THEN 'WHITE'\n             ELSE NULL\n         END\n    WHEN COALESCE(raceoth, '') <> ''\n         THEN CASE\n             WHEN COALESCE(race_aian, 0) + COALESCE(race_asian, 0) + COALESCE(race_black, 0) + COALESCE(race_nhpi, 0) + COALESCE(race_white, 0) >= 1\n                 THEN 'MULTIPLE'\n             ELSE 'OTHER'\n         END\n    END AS RACE\n    ,NULL AS DY  -- TODO: Standard derivation file missing for DY\n    ,NULL AS EPOCH  -- TODO: Standard derivation file missing for EPOCH\n    ,NULL AS ISSUE_FLAG_USUBJID  -- TODO: Custom derivation file missing for ISSUE_FLAG_USUBJID\n\nFROM \"dev\".\"main\".\"raw_dm\"", "relation_name": "\"dev\".\"main\".\"dm\"", "batch_results": null}], "elapsed_time": 0.5155951976776123, "args": {"require_resource_names_without_spaces": true, "log_format": "default", "version_check": true, "which": "run", "printer_width": 80, "defer": false, "print": true, "log_path": "/home/mlogan/projects/baas/odm-2-0/studies/VEXIN-03/dbt/logs", "require_all_warnings_handled_by_warn_error": false, "state_modified_compare_more_unrendered_values": false, "log_file_max_bytes": 10485760, "macro_debugging": false, "favor_state": false, "profiles_dir": "/home/mlogan/.dbt", "show_all_deprecations": false, "select": ["dm"], "exclude": [], "empty": false, "upload_to_artifacts_ingest_api": false, "log_format_file": "debug", "cache_selected_only": false, "vars": {"domain": "DM"}, "use_fast_test_edges": false, "skip_nodes_if_on_run_start_fails": false, "partial_parse": true, "project_dir": "/home/mlogan/projects/baas/odm-2-0/studies/VEXIN-03/dbt", "require_yaml_configuration_for_mf_time_spines": false, "warn_error_options": {"error": [], "warn": [], "silence": []}, "source_freshness_run_project_hooks": true, "introspect": true, "state_modified_compare_vars": false, "send_anonymous_usage_stats": true, "indirect_selection": "eager", "log_level_file": "debug", "show_resource_report": false, "write_json": true, "use_colors_file": true, "populate_cache": true, "log_level": "info", "quiet": false, "require_batched_execution_for_custom_microbatch_strategy": false, "invocation_command": "dbt run --select dm --vars {domain: \"DM\"}", "require_explicit_package_overrides_for_builtin_materializations": true, "static_parser": true, "require_nested_cumulative_type_params": false, "use_colors": true, "validate_macro_args": false, "strict_mode": false, "partial_parse_file_diff": true}}