STUDYID,DOMAIN,USUBJID,RFSTDTC,RFENDTC,RFICDTC,RFPENDTC,DTHDTC,DTHFL,SITEID,BRTHDTC,SEX,RACE,RACE_WHITE,RACE_BLACK,RACE_ASIAN,RACE_NHPI,RACE_AIAN,RACE_OTHER,RACEOTH,ETHNIC,ARMCD,ARM,ACTARMCD,ACTARM,COUNTRY,DMDTC
VEXIN-03,DM,01-99163,2023-03-26,,2023-03-19,,,,1,1981-11-30,M,NATIVE HAWAIIAN OR PACIFIC ISLANDER,0,0,0,1,1,0,,NOT HISPANIC OR LATINO,VEXIN-50mg,Pelvovexinol-50mg,VEXIN-50mg,Pelvovexinol-50mg,USA,2021-09-07
VEXIN-03,DM,01-1002,2024-08-15,,2024-08-08,,,,1,1988-04-22,M,AMERICAN INDIAN OR ALASKA NATIVE,0,0,0,0,1,0,,NOT HISPANIC OR LATINO,PLACEBO,Placebo,PLACEBO,Placebo,USA,2023-06-16
VEXIN-03,DM,Jan-62,2024-01-08,,2024-01-01,,,,1,1987-04-17,M,WHITE,1,0,0,0,0,0,,NOT HISPANIC OR LATINO,PLACEBO,Placebo,PLACEBO,Placebo,USA,2020-03-30
VEXIN-03,DM,01-99752,2023-09-25,,2023-09-18,,,,1,1993-05-13,M,MULTIPLE,1,0,1,0,0,0,,NOT HISPANIC OR LATINO,PLACEBO,Placebo,PLACEBO,Placebo,USA,2020-01-15
VEXIN-03,DM,01-99516,2023-06-20,,2023-06-13,,,,1,1995-01-06,F,MULTIPLE,0,1,1,0,0,0,,NOT HISPANIC OR LATINO,VEXIN-50mg,Pelvovexinol-50mg,VEXIN-50mg,Pelvovexinol-50mg,USA,2022-06-04
VEXIN-03,DM,01-1006,2024-01-28,,2024-01-21,,,,1,1992-02-16,M,BLACK OR AFRICAN AMERICAN,0,1,0,0,0,0,,NOT HISPANIC OR LATINO,VEXIN-50mg,Pelvovexinol-50mg,VEXIN-50mg,Pelvovexinol-50mg,USA,2024-07-12
VEXIN-03,DM,01-1007,2024-08-18,,2024-08-11,,,,1,1984-07-02,F,NATIVE HAWAIIAN OR PACIFIC ISLANDER,0,0,0,1,0,0,,NOT HISPANIC OR LATINO,PLACEBO,Placebo,PLACEBO,Placebo,USA,2022-04-13
VEXIN-03,DM,01-99828,2024-12-08,,2024-12-01,,,,1,1986-12-09,F,BLACK OR AFRICAN AMERICAN,0,1,0,0,0,0,,NOT HISPANIC OR LATINO,PLACEBO,Placebo,PLACEBO,Placebo,USA,2022-06-18
VEXIN-03,DM,01-99604,2024-04-27,,2024-04-20,,,,1,1997-10-19,M,WHITE,1,0,0,0,0,0,,NOT HISPANIC OR LATINO,VEXIN-50mg,Pelvovexinol-50mg,VEXIN-50mg,Pelvovexinol-50mg,USA,2020-02-11
VEXIN-03,DM,01-99680,2023-12-21,,2023-12-14,,,,1,1982-08-01,F,AMERICAN INDIAN OR ALASKA NATIVE,0,0,0,0,1,0,,NOT HISPANIC OR LATINO,VEXIN-50mg,Pelvovexinol-50mg,VEXIN-50mg,Pelvovexinol-50mg,USA,2024-09-25
VEXIN-03,DM,Feb-86,2024-10-13,,2024-10-06,,,,2,1995-03-04,M,WHITE,1,0,0,0,0,0,,NOT HISPANIC OR LATINO,PLACEBO,Placebo,PLACEBO,Placebo,USA,2021-12-18
VEXIN-03,DM,02-99521,2023-03-06,,2023-02-27,,,,2,1981-01-20,M,NATIVE HAWAIIAN OR PACIFIC ISLANDER,0,0,0,1,0,0,,HISPANIC OR LATINO,PLACEBO,Placebo,PLACEBO,Placebo,USA,2021-12-21
VEXIN-03,DM,02-99113,2023-07-27,,2023-07-20,,,,2,2004-01-03,F,BLACK OR AFRICAN AMERICAN,0,1,0,0,0,0,,NOT HISPANIC OR LATINO,PLACEBO,Placebo,PLACEBO,Placebo,USA,2022-06-05
VEXIN-03,DM,4-Feb,2023-06-09,,2023-06-02,,,,2,2000-10-16,F,WHITE,1,0,0,0,0,0,,HISPANIC OR LATINO,PLACEBO,Placebo,PLACEBO,Placebo,USA,2024-07-23
VEXIN-03,DM,02-99269,2024-12-27,,2024-12-20,,,,2,1988-04-04,F,NATIVE HAWAIIAN OR PACIFIC ISLANDER,0,0,0,1,0,0,,NOT HISPANIC OR LATINO,VEXIN-50mg,Pelvovexinol-50mg,VEXIN-50mg,Pelvovexinol-50mg,USA,2020-03-14
VEXIN-03,DM,02-99104,2024-07-21,,2024-07-14,,,,2,2000-01-06,M,WHITE,1,0,0,0,0,0,,NOT HISPANIC OR LATINO,PLACEBO,Placebo,PLACEBO,Placebo,USA,2020-08-17
VEXIN-03,DM,7-Feb,2024-07-20,,2024-07-13,,,,2,1981-11-28,F,NATIVE HAWAIIAN OR PACIFIC ISLANDER,0,0,0,1,0,0,,NOT HISPANIC OR LATINO,PLACEBO,Placebo,PLACEBO,Placebo,USA,2020-06-08
VEXIN-03,DM,02-99134,2024-03-06,,2024-02-28,,,,2,1995-10-20,F,AMERICAN INDIAN OR ALASKA NATIVE,0,0,0,0,1,0,,HISPANIC OR LATINO,VEXIN-50mg,Pelvovexinol-50mg,VEXIN-50mg,Pelvovexinol-50mg,USA,2024-12-07
VEXIN-03,DM,9-Feb,2023-06-29,,2023-06-22,,,,2,2006-09-15,F,WHITE,1,0,0,0,0,0,,NOT HISPANIC OR LATINO,VEXIN-50mg,Pelvovexinol-50mg,VEXIN-50mg,Pelvovexinol-50mg,USA,2021-10-06
VEXIN-03,DM,Feb-61,2024-08-22,,2024-08-15,,,,2,1990-05-11,F,OTHER,0,0,0,0,0,1,Native Amazonian,NOT HISPANIC OR LATINO,VEXIN-50mg,Pelvovexinol-50mg,VEXIN-50mg,Pelvovexinol-50mg,USA,2020-09-07
VEXIN-03,DM,03-99851,2023-12-20,2023-12-20,2023-12-20,2023-12-20,,,3,1988-12-11,F,MULTIPLE,0,1,1,1,0,0,,NOT HISPANIC OR LATINO,,,,,USA,2020-09-08
VEXIN-03,DM,2-Mar,2023-12-28,,2023-12-21,,,,3,2001-05-05,F,WHITE,1,0,0,0,0,0,,NOT HISPANIC OR LATINO,VEXIN-50mg,Pelvovexinol-50mg,VEXIN-50mg,Pelvovexinol-50mg,USA,2021-03-18
VEXIN-03,DM,20-Mar,2023-02-09,,2023-02-02,,,,3,2001-07-25,M,MULTIPLE,0,0,0,0,0,0,,NOT HISPANIC OR LATINO,VEXIN-50mg,Pelvovexinol-50mg,VEXIN-50mg,Pelvovexinol-50mg,USA,2020-06-21
VEXIN-03,DM,4-Mar,2024-06-27,,2024-06-20,,,,3,1985-12-18,F,NATIVE HAWAIIAN OR PACIFIC ISLANDER,0,0,0,1,0,0,,HISPANIC OR LATINO,VEXIN-50mg,Pelvovexinol-50mg,VEXIN-50mg,Pelvovexinol-50mg,USA,2020-11-13
VEXIN-03,DM,03-99403,2024-02-26,,2024-02-19,,,,3,1995-12-12,F,BLACK OR AFRICAN AMERICAN,0,1,0,0,0,0,,NOT HISPANIC OR LATINO,VEXIN-50mg,Pelvovexinol-50mg,VEXIN-50mg,Pelvovexinol-50mg,USA,2024-12-27
VEXIN-03,DM,03-99912,2024-06-23,,2024-06-16,,,,3,1994-03-25,F,BLACK OR AFRICAN AMERICAN,0,1,0,0,0,0,,NOT HISPANIC OR LATINO,VEXIN-50mg,Pelvovexinol-50mg,VEXIN-50mg,Pelvovexinol-50mg,USA,2024-10-25
VEXIN-03,DM,03-99927,2024-07-23,,2024-07-16,,,,3,1995-09-26,F,WHITE,1,0,0,0,0,0,,HISPANIC OR LATINO,PLACEBO,Placebo,PLACEBO,Placebo,USA,2020-10-15
VEXIN-03,DM,03-99431,2023-11-15,,2023-11-08,,,,3,2000-10-25,M,WHITE,1,0,0,0,0,0,,HISPANIC OR LATINO,PLACEBO,Placebo,PLACEBO,Placebo,USA,2022-08-14
VEXIN-03,DM,9-Mar,2023-07-10,,2023-07-03,,,,3,1994-02-08,M,NATIVE HAWAIIAN OR PACIFIC ISLANDER,0,0,0,1,0,0,,HISPANIC OR LATINO,PLACEBO,Placebo,PLACEBO,Placebo,USA,2022-10-05
VEXIN-03,DM,03-99764,2023-12-01,,2023-11-24,,,,3,1990-07-19,M,BLACK OR AFRICAN AMERICAN,0,1,0,0,0,0,,HISPANIC OR LATINO,VEXIN-50mg,Pelvovexinol-50mg,VEXIN-50mg,Pelvovexinol-50mg,USA,2021-11-26
VEXIN-03,DM,1-Apr,2024-06-08,,2024-06-01,,,,4,1993-05-17,F,WHITE,1,0,0,0,0,0,,NOT HISPANIC OR LATINO,VEXIN-50mg,Pelvovexinol-50mg,VEXIN-50mg,Pelvovexinol-50mg,USA,2024-10-31
VEXIN-03,DM,2-Apr,2024-08-23,,2024-08-16,,,,4,1993-10-12,F,OTHER,0,0,0,0,0,1,Caribbean,NOT HISPANIC OR LATINO,PLACEBO,Placebo,PLACEBO,Placebo,USA,2024-09-23
VEXIN-03,DM,3-Apr,2024-02-08,,2024-02-01,,,,4,1999-08-15,M,ASIAN,1,0,1,0,0,0,,NOT HISPANIC OR LATINO,VEXIN-50mg,Pelvovexinol-50mg,VEXIN-50mg,Pelvovexinol-50mg,USA,2020-11-18
VEXIN-03,DM,04-99132,2024-11-22,,2024-11-15,,,,4,1980-08-17,M,ASIAN,1,0,1,0,0,0,,HISPANIC OR LATINO,PLACEBO,Placebo,PLACEBO,Placebo,USA,2022-02-02
VEXIN-03,DM,04-99647,2023-10-20,2023-10-20,2023-10-20,2023-10-20,,,4,2003-02-15,M,WHITE,1,0,0,0,0,0,,HISPANIC OR LATINO,,,,,USA,2022-03-10
VEXIN-03,DM,6-Apr,2023-07-19,2023-07-19,2023-07-19,2023-07-19,,,4,1990-08-20,M,WHITE,1,0,0,0,0,0,,NOT HISPANIC OR LATINO,,,,,USA,2023-01-25
VEXIN-03,DM,7-Apr,2024-12-03,2024-12-03,2024-12-03,2024-12-03,,,4,1989-11-25,F,NATIVE HAWAIIAN OR PACIFIC ISLANDER,0,0,0,1,0,0,,NOT HISPANIC OR LATINO,,,,,USA,2021-09-09
VEXIN-03,DM,8-Apr,2023-05-18,2023-05-18,2023-05-18,2023-05-18,,,4,1981-12-22,M,BLACK OR AFRICAN AMERICAN,0,1,0,0,0,0,,NOT HISPANIC OR LATINO,,,,,USA,2022-04-16
VEXIN-03,DM,04-99638,2023-12-30,,2023-12-23,,,,4,1987-02-08,F,WHITE,1,0,0,0,0,0,,NOT HISPANIC OR LATINO,PLACEBO,Placebo,PLACEBO,Placebo,USA,2020-07-06
VEXIN-03,DM,04-99508,2023-02-05,,2023-01-29,,,,4,2005-07-20,F,MULTIPLE,1,1,0,0,0,0,,NOT HISPANIC OR LATINO,PLACEBO,Placebo,PLACEBO,Placebo,USA,2022-09-21
